AccX,AccY,AccZ,GyroX,GyroY,GyroZ
-0.0270936584472656,0.135318603515625,9.7382991027832,0.00023728764790576,-0.0110952612012625,-0.0015262576052919
-0.0335302734375,0.132624206542969,9.72737182617188,0.00152572500519454,-0.00845819991081953,-0.00184397271368653
-0.0458047485351563,0.146245880126953,9.7427897644043,0.0032413334120065,-0.0114009929820895,-0.00207912991754711
-0.0278421020507813,0.135767669677734,9.73216186523438,0.000439687893958762,-0.00984117947518826,-0.00141813326627016
-0.0405656433105469,0.116906890869141,9.72318054199219,-0.00116832880303264,-0.00881239958107471,-0.00277235056273639
-0.0212557983398437,0.110919342041016,9.73036560058594,-0.000944889558013529,-0.0092475600540638,-0.00396118592470884
-0.0173638916015625,0.129480743408203,9.70985824584961,0.00140561640728265,-0.00909735821187496,-0.00286316452547908
-0.0202079772949219,0.12214599609375,9.73276062011719,0.00129616050980985,-0.0101695470511913,-0.00276409485377371
-0.0260458374023438,0.125139770507812,9.74144256591797,0.00102798012085259,-0.0112127074971795,-0.0020916466601193
-0.03113525390625,0.140108642578125,9.71943832397461,-0.00197952752932906,-0.0121325626969337,-0.00175528950057924
-0.0375718688964844,0.134570159912109,9.72722213745117,0.00135075533762574,-0.0088006816804409,-0.000768588273786008
-0.0392184448242188,0.131127319335938,9.7573095703125,0.0011574097443372,-0.0102864596992731,-0.0015957661671564
-0.0205073547363281,0.115410003662109,9.69623657226563,0.00217899843119085,-0.00918897055089474,-0.00163837673608214
-0.03592529296875,0.130528564453125,9.76494369506836,0.00361151271499693,-0.00933251529932022,-0.00360538740642369
-0.0230520629882813,0.138013000488281,9.76494369506836,-0.00132758577819914,-0.00871972180902958,-0.00257527665235102
-0.0317340087890625,0.118553466796875,9.67348388671875,-2.18379209400155e-05,-0.010536796413362,0.000279898231383413
-0.0362246704101562,0.119451599121094,9.71165451049805,-0.000247141346335411,-0.00947632640600204,-0.00228339433670044
-0.0393681335449219,0.107626190185547,9.76659027099609,0.00221548369154334,-0.0113581158220768,-0.00344399991445243
-0.0154179382324219,0.127385101318359,9.75132202148438,0.000364320439985022,-0.00808615610003471,-0.00291775935329497
-0.0220042419433594,0.132773895263672,9.72767120361328,-0.00122052675578743,-0.0109447930008173,-0.00286076753400266
-0.0372724914550781,0.123343505859375,9.72108489990234,0.00130787841044366,-0.0108968559652567,-0.00341577036306262
-0.0335302734375,0.110619964599609,9.72063583374024,-0.00252068205736578,-0.00999058224260807,-0.00218725414015353
-0.0260458374023438,0.122595062255859,9.74653198242188,-0.00129509519319981,-0.00644485000520945,-0.0024264061357826
-0.0257464599609375,0.125738525390625,9.75506423950195,0.0016016251174733,-0.0104566356167197,-0.0011515507940203
-0.0377215576171875,0.130678253173828,9.72826995849609,0.000139815951115452,-0.00899029895663261,-0.00361071387305856
-0.04071533203125,0.121547241210938,9.72812026977539,-0.000162985452334397,-0.011084608733654,-0.00320378271862864
-0.0386196899414063,0.109422454833984,9.74458602905274,0.00220083631575108,-0.0106893954798579,-0.00244105351157486
-0.0318836975097656,0.133222961425781,9.74264007568359,0.000505467993207276,-0.0107618337497115,-0.00139150163158774
-0.0357756042480469,0.127385101318359,9.72812026977539,0.00276276329532266,-0.00916260574012995,-0.00416358606889844
-0.0220042419433594,0.125888214111328,9.72692276000977,0.000853543111588806,-0.0101682152599096,-0.00255556940101087
-0.0314346313476562,0.13412109375,9.74533447265625,0.00100134860258549,-0.0111437309533358,-0.00341017777100205
-0.041912841796875,0.125588836669922,9.75087295532227,-0.000435693160397932,-0.0104526411741972,-0.00175156106706709
-0.0214054870605469,0.121547241210938,9.73605377197266,0.00196115183643997,-0.0108766164630651,-0.00141413847450167
-0.0279917907714844,0.119002532958984,9.73740097045899,0.0032471923623234,-0.00993518903851509,-0.00122478778939694
-0.0383203125,0.140258331298828,9.73156311035156,-0.000372842536307871,-0.010054231621325,-0.00283493497408926
-0.0321830749511719,0.134270782470703,9.72078552246094,-0.000357129902113229,-0.0128207234665751,-0.00217100884765387
-0.0449066162109375,0.126337280273438,9.73620346069336,-0.000423176301410422,-0.010317618958652,-0.00178112217690796
-0.0411643981933594,0.117206268310547,9.7287190246582,0.000351803580997512,-0.0121264373883605,-0.00110947294160724
-0.0239501953125,0.115859069824219,9.72123458862305,-0.00128657312598079,-0.00891999155282974,-0.00247647357173264
-0.0211061096191406,0.129031677246094,9.72826995849609,0.00134702690411359,-0.00995249953120947,-0.00211774557828903
-0.0206570434570312,0.126636657714844,9.74204132080078,0.00205755815841258,-0.0108510497957468,-0.00334626180119812
-0.0353265380859375,0.126486968994141,9.7335090637207,0.00299099623225629,-0.0098233362659812,-0.00559183908626437
-0.0386196899414063,0.124241638183594,9.71958801269531,-0.00046152580762282,-0.00836232583969831,-0.00261016422882676
-0.0294886779785156,0.13412109375,9.73246124267578,0.00231375428847969,-0.0103748766705394,-0.000913197931367904
-0.0218545532226562,0.143551483154297,9.74338851928711,0.00281389593146741,-0.009073656052351,-0.00239311647601426
-0.00553848266601563,0.131875762939453,9.72452774047852,0.000433296314440668,-0.00880654063075781,-0.00259418529458344
-0.0246986389160156,0.123193817138672,9.73665252685547,0.00217633531428874,-0.00855673663318157,-0.00365705275908113
-0.0456550598144531,0.110769653320313,9.73904754638672,0.00061279337387532,-0.00959164090454578,-0.00178538321051747
-0.0154179382324219,0.119900665283203,9.7379997253418,0.00249644718132913,-0.011224159039557,-0.00247381022199988
-0.0291893005371094,0.111218719482422,9.73680221557617,-0.00250523560680449,-0.010903780348599,-0.00279099284671247
-0.03592529296875,0.135468292236328,9.71779174804688,-0.000132891742396168,-0.00893064402043819,-0.00201468146406114
-0.0360749816894531,0.13651611328125,9.74593322753906,0.00146180915180594,-0.0111607750877738,-0.00356011372059584
-0.0276924133300781,0.139210510253906,9.72572525024414,-0.00099442433565855,-0.00999377854168415,-0.00298859924077988
-0.0354762268066406,0.122445373535156,9.72213272094727,-0.000985635910183191,-0.00988725200295448,-0.00186714227311313
-0.0444575500488281,0.137414245605469,9.73650283813477,-0.000513723760377616,-0.00727708777412772,-0.00118963408749551
-0.0329315185546875,0.129929809570312,9.73066497802734,0.000880174746271223,-0.00960628874599934,-0.00138138164766133
-0.0420625305175781,0.123792572021484,9.72048614501953,7.13727131369524e-05,-0.0109652997925878,-0.00221148901619017
-0.0297880554199219,0.120050354003906,9.72707244873047,0.00017843178648036,-0.0115541247650981,-0.00442963559180498
-0.034727783203125,0.119301910400391,9.73261093139648,0.00198751711286604,-0.0132854450494051,-0.00323867006227374
-0.0375718688964844,0.129630432128906,9.73246124267578,-2.47673979174579e-05,-0.0105098988860846,-0.00556121300905943
-0.0326321411132812,0.127534790039063,9.73291030883789,0.00203625299036503,-0.00935461930930614,-0.00444188620895147
-0.0487985229492187,0.129480743408203,9.71973770141602,0.000116912771773059,-0.0110718253999949,-0.00190788856707513
-0.0425115966796875,0.124391326904297,9.72108489990234,0.00361444219015539,-0.0131576135754585,-0.0033590451348573
-0.0305364990234375,0.124541015625,9.71943832397461,0.000130494896438904,-0.0107639646157622,-0.00246475567109883
-0.0235011291503906,0.132624206542969,9.73964630126953,0.000812530459370464,-0.011755459010601,-0.00393854873254895
-0.0258961486816406,0.118553466796875,9.72527618408203,-0.000737961905542761,-0.00991095416247845,-0.00067990500247106
-0.0344284057617188,0.113613739013672,9.73081466674805,0.00137578905560076,-0.00947739090770483,-0.00359819689765573
-0.0077838134765625,0.1197509765625,9.71210357666016,-0.00232813530601561,-0.0111645041033626,-0.00241681863553822
-0.0281414794921875,0.112266540527344,9.74413696289063,-0.00067990500247106,-0.0104047041386366,-0.00364320445805788
-0.0239501953125,0.126636657714844,9.74398727416992,0.00132785213645548,-0.0102129559963942,-0.0024868599139154
-0.0176632690429688,0.11256591796875,9.72183334350586,0.00320644583553076,-0.013847372494638,-0.00241202488541603
-0.0175135803222656,0.121547241210938,9.71345077514649,-0.00122638570610434,-0.00949922949075699,-0.00165249139536172
-0.0333805847167969,0.128881988525391,9.71285202026367,0.000578971230424941,-0.00998552236706018,-0.00307302153669298
-0.0660127258300781,0.136216735839844,9.75251953125,0.00438782433047891,-0.0115365469828248,-0.000735032430384308
-0.0336799621582031,0.130079498291016,9.72153396606445,-0.000117445400974248,-0.0118380170315504,0.000490554259158671
-0.0333805847167969,0.131426696777344,9.72512649536133,0.000736364047043025,-0.00967180170118809,-0.00261602317914367
-0.0441581726074219,0.123044128417969,9.71958801269531,0.000845287344418466,-0.0100651513785124,-0.00324266497045755
-0.034727783203125,0.116308135986328,9.71868988037109,0.00067564396886155,-0.0101940482854843,-0.00341284088790417
-0.0381706237792969,0.123792572021484,9.72258178710937,0.000591221731156111,-0.0104859303683043,-0.00228898692876101
-0.0354762268066406,0.139809265136719,9.73231155395508,-0.000477771100122482,-0.00945155881345272,-0.00268153683282435
-0.0309855651855469,0.139210510253906,9.7284196472168,0.0022077604662627,-0.0103594306856394,-0.00291216652840376
-0.028740234375,0.130079498291016,9.74503509521484,0.000589623872656375,-0.0116611830890179,-0.00312388804741204
-0.0335302734375,0.125289459228516,9.74862762451172,-0.00212759943678975,-0.0100100236013532,-0.0015933692920953
-0.0300874328613281,0.142353973388672,9.74204132080078,0.00238139857538044,-0.0120225744321942,-0.00318673858419061
-0.0187110900878906,0.137114868164063,9.73844879150391,0.000688427127897739,-0.00836126040667295,-0.0036908749025315
-0.0384700012207031,0.141455841064453,9.73500595092773,-4.18116287619341e-05,-0.0111368065699935,-0.00360245793126523
-0.0276924133300781,0.133522338867188,9.74129287719727,-0.00123544037342072,-0.0100441118702292,-0.00102664856240153
-0.0224533081054688,0.102087707519531,9.71973770141602,0.00240297033451498,-0.00775592401623726,-0.00162772403564304
-0.03113525390625,0.123343505859375,9.72273147583008,-0.000117445400974248,-0.010478206910193,-0.00237340922467411
-0.0199085998535156,0.124091949462891,9.73605377197266,0.000329433038132265,-0.0093176020309329,-0.00244824402034283
-0.0139210510253906,0.126786346435547,9.72722213745117,-0.0029198897536844,-0.00996315199881792,-0.00287887710146606
-0.0232017517089844,0.124391326904297,9.72692276000977,0.00167193252127618,-0.0105652930215001,-0.00434654532000422
-0.0417631530761719,0.12214599609375,9.73485626220703,0.00338221457786858,-0.0131309824064374,-0.00431884825229645
-0.0411643981933594,0.130827941894531,9.73395812988281,-0.00134436367079616,-0.00922439061105251,-0.00119336252100766
-0.0257464599609375,0.144599304199219,9.73276062011719,-0.000464987911982462,-0.00928804092109203,-0.000627440749667585
-0.03592529296875,0.138462066650391,9.73635314941406,-0.00123171193990856,-0.0108856707811356,-0.00381204881705344
-0.0474513244628906,0.143701171875,9.70417007446289,0.00149376702029258,-0.00816365424543619,-0.00250843144021928
-0.0437091064453125,0.120649108886719,9.70402038574219,0.000177899157279171,-0.00887232087552547,-0.00116886140312999
-0.0338296508789062,0.125738525390625,9.7667399597168,-0.00106419913936406,-0.0108276139944792,-0.00258513051085174
-0.0182620239257813,0.128432922363281,9.72707244873047,-6.33832314633764e-05,-0.0124324345961213,-0.000908137939404696
-0.0224533081054688,0.11735595703125,9.71225326538086,0.0012351741315797,-0.00903344247490168,-0.0020128171890974
-0.0272433471679688,0.102686462402344,9.75012451171875,-0.000193611806025729,-0.0103357285261154,-0.000330231967382133
-0.0329315185546875,0.106877746582031,9.73081466674805,-0.000741424039006233,-0.00992267206311226,-0.00305171636864543
-0.0254470825195313,0.120349731445313,9.73141342163086,0.00125275098253042,-0.00969630293548107,-0.00369273917749524
-0.04071533203125,0.124690704345703,9.7284196472168,0.000863396795466542,-0.00997247267514467,-0.00277181807905436
-0.0507444763183594,0.138462066650391,9.72707244873047,0.00167139992117882,-0.00701290182769299,-0.00153264915570617
-0.0360749816894531,0.142653350830078,9.72707244873047,0.000257527688518167,-0.00721476972103119,-0.00474016042426229
-0.0278421020507813,0.138162689208984,9.72273147583008,-0.000578971230424941,-0.00906513351947069,-0.00152679020538926
-0.0303868103027344,0.1197509765625,9.73635314941406,-0.000953411683440208,-0.0101077612489462,-0.00255477032624185
-0.0140707397460938,0.135617980957031,9.73096435546875,0.00104635593015701,-0.00796604715287685,-0.00195848871953785
-0.0386196899414063,0.126187591552734,9.7382991027832,-0.000378168857423589,-0.0104134920984507,-0.00201574666425586
-0.0330812072753906,0.120499420166016,9.72497680664063,0.0013347762869671,-0.0106414593756199,-0.00471059931442142
-0.0178129577636719,0.110919342041016,9.72138427734375,0.00240376917645335,-0.0102387890219688,-0.0053236591629684
-0.0305364990234375,0.11256591796875,9.73365875244141,0.00159949448425323,-0.00780119793489575,-0.00297954468987882
-0.0426612854003906,0.119900665283203,9.74428665161133,0.000180828632437624,-0.00948751159012318,-0.0024266722612083
-0.0366737365722656,0.13412109375,9.72812026977539,0.000438622635556385,-0.0108587732538581,-0.00185835384763777
-0.0481997680664063,0.138611755371094,9.73305999755859,0.00275903497822583,-0.00993944983929396,-0.00223093014210463
-0.041912841796875,0.138462066650391,9.73305999755859,-0.00046152580762282,-0.0104467822238803,-0.00411058915778995
-0.0302371215820313,0.135318603515625,9.74249038696289,0.000105727493064478,-0.0120121883228421,-0.00201548030599952
-0.0365240478515625,0.134719848632812,9.73755065917969,-0.00148045120295137,-0.010118680074811,-0.00251002935692668
-0.028740234375,0.115410003662109,9.73470657348633,0.00212360452860594,-0.00927046407014132,-0.00244851037859917
-0.0302371215820313,0.1293310546875,9.72347991943359,0.00136007636319846,-0.00833968911319971,-0.0031537152826786
-0.0354762268066406,0.112715606689453,9.71958801269531,-9.80043259914964e-05,-0.0121996747329831,-0.00304958573542535
-0.0399668884277344,0.124990081787109,9.73066497802734,0.000295610865578055,-0.0106278769671917,-0.00281815696507692
-0.0230520629882813,0.119451599121094,9.74518478393555,-3.51537273672875e-05,-0.0109328087419271,-0.00288606761023402
-0.0269439697265625,0.128133544921875,9.72662338256836,-0.00146580382715911,-0.00950562115758657,-0.00315557955764234
-0.0137713623046875,0.140557708740234,9.72333023071289,0.00184823374729604,-0.00970775447785854,-0.00340911257080734
-0.022752685546875,0.136216735839844,9.72078552246094,-0.00104901916347444,-0.0119192432612181,-0.0037529265973717
-0.0380209350585938,0.125738525390625,9.73261093139648,0.000827444135211408,-0.00930721499025822,-0.0027190875262022
-0.0273930358886719,0.122295684814453,9.73695190429688,-0.00047430899576284,-0.00699639040976763,-0.00416172202676535
-0.0278421020507813,0.128582611083984,9.7427897644043,-0.000329699338180944,-0.00946593936532736,-0.00196594558656216
-0.0284408569335938,0.109422454833984,9.71809112548828,0.000995223294012249,-0.00984437484294176,-0.0023659523576498
-0.0296383666992188,0.113014984130859,9.73305999755859,0.000549410120584071,-0.00875753909349442,-0.00265890010632575
-0.03113525390625,0.119451599121094,9.73201217651367,-0.000442617369117215,-0.0106486491858959,-0.00229591107927263
-0.027542724609375,0.119601287841797,9.73021591186524,-0.00030626353691332,-0.0111679658293724,-0.00190655700862408
-0.0276924133300781,0.130678253173828,9.73216186523438,0.00142159534152597,-0.0105834016576409,-0.00342429243028164
-0.0239501953125,0.129780120849609,9.74054443359375,0.0020975056104362,-0.00976954028010368,-0.00178511685226113
-0.0422122192382813,0.133073272705078,9.74503509521484,0.00165089359506965,-0.0108838062733412,-0.00296329939737916
-0.0197589111328125,0.128283233642578,9.72961715698242,-3.00937208521646e-05,-0.00973412021994591,-0.000864462112076581
-0.0249980163574219,0.112266540527344,9.72767120361328,0.00244424934498966,-0.0123120602220297,-0.00227700266987085
-0.0321830749511719,0.120050354003906,9.7285693359375,-0.000392283633118495,-0.0100009683519602,-0.000606668065302074
-0.0181123352050781,0.12693603515625,9.73305999755859,-0.000396012037526816,-0.0102731436491013,-0.00421045767143369
-0.0260458374023438,0.110320587158203,9.73216186523438,0.00277261692099273,-0.00997620169073343,-0.0017534252256155
-0.0420625305175781,0.115110626220703,9.7430891418457,-0.00130867736879736,-0.0104433195665479,-0.00139656162355095
-0.04071533203125,0.127235412597656,9.71000793457031,-0.000416518392739818,-0.0128295123577118,-0.00316463434137404
-0.0257464599609375,0.142653350830078,9.72587493896484,0.00179683475289494,-0.00790692493319511,-0.00461632339283824
-0.0363743591308594,0.130827941894531,9.74159225463867,0.00101732753682882,-0.0100539652630687,-0.00567626161500812
-0.0330812072753906,0.114811248779297,9.72572525024414,0.00319419545121491,-0.00910241808742285,-0.00220376579090953
-0.0154179382324219,0.129031677246094,9.72826995849609,0.00143917219247669,-0.0098038949072361,-0.00291935727000237
-0.0453556823730469,0.130079498291016,9.733359375,0.00319845648482442,-0.0104608964174986,-0.00310737639665604
-0.0426612854003906,0.125738525390625,9.72033645629883,0.00029374667792581,-0.0118622519075871,-0.000543018570169806
-0.020357666015625,0.118703155517578,9.75147171020508,0.00409807218238711,-0.0102792689576745,-0.00274678436107934
-0.020357666015625,0.131277008056641,9.73365875244141,0.00172066839877516,-0.0129272500053048,-0.00472711073234677
-0.0240998840332031,0.123942260742188,9.7285693359375,0.00255876523442566,-0.0106321377679706,-0.00218405830673873
-0.034727783203125,0.120050354003906,9.73410781860352,-0.00104848656337708,-0.00840040855109692,-0.000649544992484152
-0.0279917907714844,0.12693603515625,9.7379997253418,0.000863396795466542,-0.0101050985977054,-0.0031220237724483
-0.0214054870605469,0.123044128417969,9.71330108642578,-0.000427171034971252,-0.0124875623732805,0.000100401171948761
-0.0139210510253906,0.123343505859375,9.71734268188477,-0.00122665194794536,-0.0108643658459187,-0.00348661048337817
-0.0329315185546875,0.129031677246094,9.72093521118164,0.00140561640728265,-0.0105250785127282,-0.00334599567577243
-0.0374221801757812,0.121247863769531,9.72752151489258,0.00337768718600273,-0.0106939235702157,-0.00460460549220443
-0.0281414794921875,0.128881988525391,9.72273147583008,0.00121014041360468,-0.00986168533563614,-0.00308979954570532
-0.0212557983398437,0.122894439697266,9.73051528930664,-0.00195236341096461,-0.00941906776279211,-0.00185489165596664
-0.0339793395996094,0.134420471191406,9.72512649536133,-0.000202666560653597,-0.0117751667276025,-0.0040274984203279
-0.0324824523925781,0.115110626220703,9.74698104858398,0.000396278366679326,-0.010184726677835,-0.00177180103491992
-0.0214054870605469,0.120050354003906,9.73725128173828,0.000908936897758394,-0.0103146890178323,-0.00313693750649691
-0.0254470825195313,0.130079498291016,9.72617431640625,-0.00176034949254245,-0.0110840760171413,-0.00294119515456259
-0.0345780944824219,0.130079498291016,9.73755065917969,-0.0014689996605739,-0.0106630306690931,-0.00473323604092002
-0.0387693786621094,0.131875762939453,9.72572525024414,-0.00183624960482121,-0.00904249679297209,-0.0038509308360517
-0.047900390625,0.125289459228516,9.73455688476563,-0.000434894202044234,-0.0112595790997148,-0.00202293717302382
-0.0333805847167969,0.135767669677734,9.7332096862793,0.00130468257702887,-0.0096454368904233,-0.0015172028215602
-0.0380209350585938,0.118553466796875,9.72273147583008,-0.000533164828084409,-0.00836552120745182,-0.000774180924054235
-0.0363743591308594,0.125289459228516,9.74039474487305,-0.000135821217554621,-0.00929496437311172,7.37695590942167e-05
-0.0264949035644531,0.125888214111328,9.73096435546875,0.0030631679110229,-0.01149473618716,-0.00221042358316481
-0.0255967712402344,0.126337280273438,9.72153396606445,0.00204663933254778,-0.00814314745366573,-0.00094861799152568
-0.0182620239257813,0.116158447265625,9.73111404418945,-0.00115474662743509,-0.0109285479411483,-0.00183624960482121
-0.0338296508789062,0.133971405029297,9.7287190246582,-0.000241016081417911,-0.0125645278021693,-0.00453483080491424
-0.0300874328613281,0.133971405029297,9.73201217651367,-0.00114222976844758,-0.0104662226513028,-0.00158564606681466
-0.0404159545898438,0.126037902832031,9.72527618408203,-0.000237021333305165,-0.00706589873880148,-0.00119868875481188
-0.0389190673828125,0.131576385498047,9.73470657348633,0.00246076076291502,-0.0110569121316075,-0.00303440564312041
-0.0317340087890625,0.147293701171875,9.72916809082031,-0.00181041692849249,-0.00813968572765589,-0.000566188071388751
-0.0405656433105469,0.126636657714844,9.73949661254883,-5.27305892319418e-05,-0.00940042547881603,-0.000845553644467145
-0.0281414794921875,0.132025451660156,9.74249038696289,-0.00109509180765599,-0.00997886434197426,-0.00377369928173721
-0.0260458374023438,0.125738525390625,9.7284196472168,0.00499023124575615,-0.0109296133741736,-0.00371937081217766
-0.017962646484375,0.124840393066406,9.73186248779297,-0.000373907823814079,-0.00998339150100946,-0.00270497263409197
-0.0282911682128906,0.114062805175781,9.73680221557617,-4.90021629957482e-05,-0.0080659156665206,-0.00224131625145674
-0.029937744140625,0.103135528564453,9.74069412231445,0.000932905299123377,-0.0105040399357677,-0.00257421145215631
-0.0426612854003906,0.133821716308594,9.75431579589844,0.00219790684059262,-0.00921213999390602,-0.00219817319884896
-0.0363743591308594,0.137713623046875,9.72886871337891,-0.000124635931570083,-0.0118912803009152,-0.00261176214553416
-0.0252973937988281,0.124241638183594,9.73380844116211,0.00147379329428077,-0.0115045895799994,-0.00181521056219935
-0.0279917907714844,0.130079498291016,9.73590408325195,-0.000229830795433372,-0.0102595612406731,-0.0024746092967689
-0.0329315185546875,0.134869537353516,9.72812026977539,0.00123011413961649,-0.0117695741355419,-0.00183491792995483
-0.0341290283203125,0.135917358398437,9.73276062011719,-0.00189457274973392,-0.0120982080698013,-0.00272334855981171
-0.0342787170410156,0.12693603515625,9.72467742919922,0.00242853653617203,-0.0102044343948364,-0.00397556694224477
-0.0297880554199219,0.128133544921875,9.7287190246582,0.000157392816618085,-0.0109767513349652,-0.000735298788640648
-0.0338296508789062,0.117954711914063,9.73021591186524,0.00126180576626211,-0.00924569647759199,-0.00459075719118118
-0.0306861877441406,0.126786346435547,9.73500595092773,0.000471645820653066,-0.00904436130076647,-0.00160348927602172
-0.039517822265625,0.129031677246094,9.72123458862305,-0.00150441972073168,-0.0101975100114942,-0.00433136522769928
-0.0342787170410156,0.120499420166016,9.72767120361328,-0.000588824914302677,-0.00959670078009367,-0.00126393628306687
-0.0366737365722656,0.129630432128906,9.74563385009766,0.000747282989323139,-0.00921320542693138,-0.00262001785449684
-0.0351768493652344,0.122894439697266,9.73710159301758,0.00020959076937288,-0.0111416010186076,-0.00291003612801433
-0.0330812072753906,0.13651611328125,9.72078552246094,-0.000450340536190197,-0.00865953415632248,-0.00167512835469097
-0.0426612854003906,0.137414245605469,9.73395812988281,-0.00123730464838445,-0.010545851662755,-0.00353880831971765
-0.0408650207519531,0.124840393066406,9.72422836303711,0.00249538198113441,-0.00953891035169363,-0.002566754585132
-0.0336799621582031,0.123642883300781,9.71824081420898,-0.00146180915180594,-0.00770585658028722,-0.00348368100821972
-0.0426612854003906,0.127684478759766,9.7287190246582,0.0011174624087289,-0.00983745045959949,-0.00122824986465275
-0.0327818298339844,0.135468292236328,9.73919723510742,0.00146766810212284,-0.00916127394884825,-0.00192093802616
-0.00703536987304688,0.132175140380859,9.72991653442383,-0.00126766471657902,-0.00980922114104033,0.000325171975418925
-0.0335302734375,0.124840393066406,9.7285693359375,-0.000790958816651255,-0.00783981382846832,-0.00362083385698497
-0.0326321411132812,0.130528564453125,9.75910583496094,0.00014247911167331,-0.0100579606369138,-0.00235929433256388
-0.0220042419433594,0.127983856201172,9.74069412231445,0.0014168017078191,-0.0115951374173164,-0.00443442957475781
-0.0257464599609375,0.140707397460937,9.72826995849609,0.00274811591953039,-0.01184440869838,-0.0038948729634285
-0.0384700012207031,0.119002532958984,9.72467742919922,0.000379766774130985,-0.011042264290154,-0.003196059493348
-0.0384700012207031,0.130079498291016,9.71554641723633,-0.00181041692849249,-0.0110372044146061,-0.00180242746137083
-0.0188607788085938,0.127385101318359,9.71659423828125,0.000300138257443905,-0.00985769089311361,-0.00286316452547908
-0.029937744140625,0.129630432128906,9.71554641723633,0.000902811589185148,-0.0127592049539089,0.000432763685239479
-0.0276924133300781,0.132175140380859,9.7285693359375,0.0017715347930789,-0.0134289897978306,-0.00243119965307415
-0.0261955261230469,0.118852844238281,9.72692276000977,0.00149989232886583,-0.0103375921025872,-0.00335957761853933
-0.0375718688964844,0.110769653320313,9.73665252685547,0.00332229351624846,-0.0105921905487776,-0.00354626518674195
-0.0272433471679688,0.120948486328125,9.74713073730469,0.000958737975452095,-0.0106342686340213,-0.00324399652890861
-0.0239501953125,0.116906890869141,9.74219100952148,-0.000262587680481374,-0.00959616806358099,0.000142212797072716
-0.0149688720703125,0.13651611328125,9.74009536743164,0.00157579244114459,-0.00807816628366709,-0.00194224331062287
-0.0258961486816406,0.143551483154297,9.72482711791992,0.00142053014133126,-0.00876952335238457,-0.00214917096309364
-0.0353265380859375,0.140258331298828,9.72752151489258,-0.000639424950350076,-0.0110819460824132,-0.00213558878749609
-0.0437091064453125,0.132474517822266,9.72692276000977,-0.000175502311321907,-0.0103804692625999,-0.00171081465668976
-0.0258961486816406,0.128732299804688,9.73141342163086,0.000586694397497922,-0.00953891035169363,-0.00109562440775335
-0.0348774719238281,0.11256591796875,9.72093521118164,0.00239364919252694,-0.0121235083788633,-0.00127645314205438
-0.0267942810058594,0.109272766113281,9.72677307128906,0.00197313609533012,-0.00931467209011316,-0.00227860058657825
-0.0196092224121094,0.127684478759766,9.73410781860352,0.00157898815814406,-0.0111626395955682,-0.0026511768810451
-0.0290396118164063,0.126037902832031,9.74129287719727,0.00314758997410536,-0.0104411896318197,-0.00323307747021317
-0.0232017517089844,0.131875762939453,9.73261093139648,0.00148151651956141,-0.00987633317708969,-0.00227993214502931
-0.0267942810058594,0.1293310546875,9.72737182617188,0.00283440225757658,-0.00976661033928394,-0.00398222496733069
-0.0327818298339844,0.13172607421875,9.72512649536133,0.00124236464034766,-0.0104510430246592,-0.00194277602713555
-0.0362246704101562,0.126786346435547,9.7381494140625,-0.000942759041208774,-0.00916873104870319,-0.00321843009442091
-0.0226029968261719,0.124840393066406,9.71764205932617,0.00174623471684754,-0.0116236330941319,-0.00421605026349425
-0.0200582885742187,0.139060821533203,9.7335090637207,-0.000855407328344882,-0.00805952399969101,-0.00144369958434254
-0.0508941650390625,0.105530548095703,9.73515563964844,0.000901746330782771,-0.0117141800001264,-0.00122185831423849
-0.0393681335449219,0.116008758544922,9.72482711791992,0.00256648822687566,-0.00945502053946257,-0.0037183053791523
-0.0300874328613281,0.113464050292969,9.72333023071289,0.00104236125480384,-0.011952000670135,-0.00293853203766048
-0.0513432312011719,0.117954711914063,9.72737182617188,0.000552073295693845,-0.0109882028773427,-0.00309033202938735
-0.0414637756347656,0.1149609375,9.71494766235352,0.0011241203173995,-0.00891599711030722,-0.0015188007382676
-0.0341290283203125,0.125289459228516,9.742939453125,0.00230363430455327,-0.012954680249095,-0.00281096645630896
-0.0257464599609375,0.143551483154297,9.73889785766602,-0.00146420591045171,-0.0107165602967143,-0.0045920885168016
-0.0374221801757812,0.145198059082031,9.72976684570312,6.15190219832584e-05,-0.0118468059226871,-0.00402243854478002
-0.0324824523925781,0.132923583984375,9.73201217651367,0.00221095629967749,-0.0120374877005816,-0.00176754000131041
-0.0354762268066406,0.120649108886719,9.72183334350586,-9.72053821897134e-05,-0.0117828901857138,-0.00319792376831174
-0.0302371215820313,0.121696929931641,9.72662338256836,0.00046578687033616,-0.00972639676183462,-0.00160002720076591
-0.0267942810058594,0.105530548095703,9.73994567871094,-0.000968325359281152,-0.00924809277057648,-0.000777110399212688
-0.0220042419433594,0.124241638183594,9.72108489990234,0.00121759728062898,-0.00949736498296261,-0.00271349470131099
-0.0405656433105469,0.130079498291016,9.71150482177734,0.000409061554819345,-0.0112449312582612,-0.00185329373925924
-0.0444575500488281,0.128432922363281,9.73141342163086,0.00191001908387989,-0.00983159150928259,-0.00428902078419924
-0.0380209350585938,0.141755218505859,9.72063583374024,0.00256755365990102,-0.0110177639871836,-0.00243013445287943
-0.0333805847167969,0.142054595947266,9.73635314941406,0.000517185893841088,-0.0108262822031975,-0.00390952033922076
-0.0386196899414063,0.130678253173828,9.72437805175781,-0.00117285607848316,-0.00965688843280077,-0.00320697855204344
-0.0484991455078125,0.121996307373047,9.72542587280273,-9.02811589185148e-05,-0.00875114742666483,-0.0023419838398695
-0.0362246704101562,0.126187591552734,9.73859848022461,0.000341150938766077,-0.00737562449648976,-0.000702541903592646
-0.0284408569335938,0.136067047119141,9.72916809082031,0.000774447224102914,-0.0110409334301949,-0.00412044301629066
-0.0278421020507813,0.130528564453125,9.71240295410156,6.12527073826641e-05,-0.00870054680854082,-0.00227007851935923
-0.0389190673828125,0.126636657714844,9.73425750732422,7.37695590942167e-05,-0.00971441250294447,-0.00125807733274996
-0.0375718688964844,0.117206268310547,9.7427897644043,0.000875381054356694,-0.00830773077905178,-0.00189004535786808
-0.0281414794921875,0.113613739013672,9.74593322753906,0.00265836738981307,-0.010412959381938,-0.00193372124340385
-0.0332308959960938,0.124690704345703,9.71644454956055,0.000312655116431415,-0.00942785665392876,-0.00262374617159367
-0.0452059936523438,0.113763427734375,9.71270233154297,0.000783235649578273,-0.0112779540941119,-0.00157898815814406
-0.0389190673828125,0.123493194580078,9.74383758544922,0.00189830118324608,-0.0113213639706373,-0.00244078715331852
-0.0383203125,0.130378875732422,9.72901840209961,-0.00156407454051077,-0.00825313571840525,-0.000668719760142267
-0.0549357604980469,0.132923583984375,9.73859848022461,0.000185622324352153,-0.00924463104456663,-0.00291669392026961
-0.0276924133300781,0.129181365966797,9.71943832397461,0.00158910825848579,-0.012074239552021,-0.00206927605904639
-0.0297880554199219,0.121098175048828,9.72512649536133,0.00117978034541011,-0.0100414492189884,-0.00233612488955259
-0.0296383666992188,0.114511871337891,9.72512649536133,0.000565655413083732,-0.00827018078416586,-0.00314492685720325
-0.0209564208984375,0.124391326904297,9.71958801269531,2.66316106944942e-07,-0.0119602559134364,-0.00127964885905385
-0.0365240478515625,0.125888214111328,9.73994567871094,-0.00145515124313533,-0.0105538405478001,-0.00136407115496695
-0.0330812072753906,0.136216735839844,9.74174194335938,-0.00244664610363543,-0.0105029745027423,-0.00252494309097528
-0.0332308959960938,0.138162689208984,9.74174194335938,0.00125008774921298,-0.0101509047672153,-0.00227700266987085
-0.0300874328613281,0.138761444091797,9.71779174804688,0.00239764386788011,-0.0100896516814828,0.00049108691746369
-0.0281414794921875,0.134420471191406,9.73485626220703,-0.00119416147936136,-0.0100012347102165,-0.00293400464579463
-0.0252973937988281,0.124690704345703,9.75326797485352,0.00141227431595325,-0.00892851408571005,-0.00231508584693074
-0.0375718688964844,0.123642883300781,9.73680221557617,0.00154143758118153,-0.0110411997884512,-0.00122026039753109
-0.0329315185546875,0.125439147949219,9.73276062011719,0.000937166390940547,-0.00902172457426786,-0.000579503830522299
-0.0269439697265625,0.118852844238281,9.74144256591797,0.000152865439304151,-0.0122108599171042,-0.00359899597242475
-0.0233514404296875,0.130229187011719,9.72183334350586,-0.00135741324629635,-0.00877511594444513,-0.00144210166763514
-0.0428109741210938,0.138761444091797,9.72527618408203,-0.000782703049480915,-0.00914556160569191,-0.00247008190490305
-0.039517822265625,0.139360198974609,9.733359375,0.000229298166232184,-0.011214304715395,-3.0626353691332e-05
-0.0209564208984375,0.128582611083984,9.72123458862305,-0.000333960400894284,-0.00971521157771349,-0.00208978238515556
-0.0221539306640625,0.133222961425781,9.75132202148438,0.000271642435109243,-0.0118265654891729,-0.00400113314390182
-0.0154179382324219,0.128732299804688,9.72003707885742,0.00164849672000855,-0.0103226788341999,-0.00272228335961699
-0.0329315185546875,0.125139770507812,9.7239289855957,0.00142559013329446,-0.0111096426844597,0.00112784875091165
-0.0386196899414063,0.131576385498047,9.72931777954102,0.00109642336610705,-0.0107003152370453,-0.00319233117625117
-0.0483494567871094,0.116757202148438,9.7236296081543,0.000504935334902257,-0.0123445503413677,-0.000757935631554574
-0.0402662658691406,0.128432922363281,9.72542587280273,-0.000580302788875997,-0.0100028328597546,-0.00407650042325258
-0.0212557983398437,0.125439147949219,9.73440719604492,0.00220669526606798,-0.0114353476092219,-0.00409700721502304
-0.0329315185546875,0.124690704345703,9.7044694519043,0.0019225359428674,-0.00848243478685617,-0.000616521807387471
-0.0428109741210938,0.116158447265625,9.72333023071289,0.000512392201926559,-0.00833649281412363,-0.0022847258951515
-0.0354762268066406,0.119301910400391,9.73889785766602,-0.000672980793751776,-0.0110060460865498,-0.000842091511003673
-0.0293389892578125,0.137563934326172,9.73081466674805,0.00163944193627685,-0.0118566593155265,-0.00337236095219851
-0.0330812072753906,0.125738525390625,9.74473571777344,0.00229857442900538,-0.0117181753739715,-0.000614391232375056
-0.0357756042480469,0.131576385498047,9.72797058105469,0.00121546676382422,-0.00921213999390602,-0.000972320092841983
-0.0324824523925781,0.135019226074219,9.73904754638672,0.00126952887512743,-0.0121115241199732,-0.00250656716525555
-0.0221539306640625,0.125588836669922,9.73859848022461,-9.08137953956611e-05,-0.00863982737064362,-0.00586108490824699
-0.0425115966796875,0.118852844238281,9.73605377197266,1.97073914023349e-05,-0.0100007019937038,-0.0024248082190752
-0.044307861328125,0.126486968994141,9.72722213745117,0.000448476319434121,-0.0119791645556688,-0.00349912722595036
-0.0188607788085938,0.11735595703125,9.72318054199219,0.0016357135027647,-0.0100939134135842,-0.00459182215854526
-0.0212557983398437,0.119301910400391,9.73201217651367,-0.00146846706047654,-0.00946141220629215,-0.00327435648068786
-0.0166154479980469,0.126187591552734,9.73395812988281,0.000221574999159202,-0.0112254898995161,-0.00315051944926381
-0.0456550598144531,0.128582611083984,9.71958801269531,0.00162053352687508,-0.0110915331169963,-0.00264851376414299
-0.0417631530761719,0.121996307373047,9.73530532836914,0.000927312707062811,-0.0120060630142689,-0.00278353597968817
-0.049097900390625,0.131127319335938,9.73261093139648,0.00368235283531249,-0.0117264306172729,-0.00386584457010031
-0.0350271606445312,0.125738525390625,9.73126373291016,0.00186794123146683,-0.00987420231103897,-0.00179523683618754
-0.0176632690429688,0.1293310546875,9.74024505615234,0.000602140731643885,-0.0113804861903191,-0.00150761543773115
-0.029937744140625,0.139958953857422,9.74129287719727,0.00138297956436872,-0.0111485244706273,-8.38895721244626e-05
-0.0511935424804687,0.132474517822266,9.72452774047852,-0.00114356132689863,-0.00850853323936462,-0.00353987375274301
-0.0281414794921875,0.121547241210938,9.72826995849609,-0.000263652938883752,-0.00964117608964443,-0.00173957680817693
-0.0405656433105469,0.107476501464844,9.73605377197266,0.000873516837600619,-0.00892904680222273,-0.00302934576757252
-0.0384700012207031,0.138312377929688,9.74054443359375,-0.00223838677629828,-0.00895967241376638,-0.00256196083500981
-0.0449066162109375,0.132324829101563,9.73530532836914,0.00137179426383227,-0.0115701034665108,-0.00267381360754371
-0.037122802734375,0.114661560058594,9.73186248779297,0.00104369281325489,-0.010505904443562,-0.000760332506615669
-0.034727783203125,0.127235412597656,9.73186248779297,0.00210709311068058,-0.00941374152898788,0.000153664397657849
-0.0294886779785156,0.117805023193359,9.73934692382813,-0.00106020446401089,-0.00918737333267927,-0.00319313001818955
-0.0333805847167969,0.1389111328125,9.71719299316406,-0.000348607776686549,-0.0112108429893851,-0.00181893899571151
-0.029937744140625,0.125139770507812,9.73889785766602,-0.00118750357069075,-0.0104409232735634,-3.19579339702614e-05
-0.0326321411132812,0.129031677246094,9.73590408325195,7.1106398536358e-05,-0.00941480696201324,-0.000970988534390926
-0.0318836975097656,0.128881988525391,9.73695190429688,0.00149456597864628,-0.0107597038149834,-0.00229537859559059
-0.0402662658691406,0.142353973388672,9.73066497802734,0.00233426061458886,-0.00802463665604591,-0.00247966917231679
-0.0399668884277344,0.128432922363281,9.71629486083984,-0.00211854465305805,-0.00981694459915161,-0.00230416702106595
-0.03113525390625,0.120200042724609,9.74039474487305,-0.000662328151520342,-0.0116454707458615,-0.00264877988956869
-0.0279917907714844,0.114511871337891,9.73964630126953,0.000411724700825289,-0.00980762299150229,-0.00250576832331717
-0.03592529296875,0.120948486328125,9.7143489074707,-0.000167779144248925,-0.00920761283487082,-0.00118004670366645
-0.0293389892578125,0.133971405029297,9.73261093139648,0.00251269247382879,-0.00886566285043955,-0.00183838012162596
-0.0312849426269531,0.120649108886719,9.72333023071289,0.00205196556635201,-0.0101466439664364,-0.00163411558605731
-0.0217048645019531,0.123343505859375,9.73755065917969,0.00307861412875354,-0.0107924602925777,-0.0032836776226759
-0.0229023742675781,0.125439147949219,9.73934692382813,0.00143544375896454,-0.0101634217426181,-0.00231934688054025
-0.0462538146972656,0.142803039550781,9.73081466674805,0.000792290433309972,-0.00955808535218239,-0.00446186028420925
-0.0380209350585938,0.132025451660156,9.73949661254883,0.00216781301423907,-0.0128193916752934,-0.00303200888447464
-0.0398171997070313,0.122894439697266,9.74144256591797,0.00123623933177441,-0.00819188356399536,-0.00308500579558313
-0.0438587951660156,0.126037902832031,9.72557556152344,0.00260936515405774,-0.0110739562660456,-0.00241468823514879
-0.0308358764648438,0.128582611083984,9.71060668945313,0.000411991029977798,-0.0111245568841696,-0.003212571144104
-0.0348774719238281,0.140108642578125,9.73919723510742,0.00268739578314126,-0.00802516937255859,-0.00366450962610543
-0.0260458374023438,0.133672027587891,9.73051528930664,0.00177366530988365,-0.00979137793183327,-0.00359260430559516
-0.0296383666992188,0.135468292236328,9.73380844116211,-0.000377103599021211,-0.0105565041303635,-0.00325358379632235
-0.0232017517089844,0.125289459228516,9.73051528930664,-0.00161360925994813,-0.0100845918059349,-0.00326263858005404
-0.0350271606445312,0.129480743408203,9.73171279907227,0.00204690569080412,-0.0112209627404809,-0.00225276802666485
-0.0302371215820313,0.113913116455078,9.73904754638672,0.00259604933671653,-0.00916766561567783,-0.0027598338201642
-0.0233514404296875,0.133073272705078,9.72692276000977,0.00139496382325888,-0.00875061471015215,-0.00299818674102426
-0.0245489501953125,0.126486968994141,9.72916809082031,-0.000372576236259192,-0.0103165535256267,-0.00374280661344528
-0.0459544372558594,0.144748992919922,9.72467742919922,0.00208472250960767,-0.00968724861741066,-0.00340405246242881
-0.0377215576171875,0.136665802001953,9.73126373291016,-0.00116060557775199,-0.00871412921696901,-0.00255610188469291
-0.0342787170410156,0.128732299804688,9.72826995849609,-0.000626908091362566,-0.00985289737582207,-0.000863130495417863
-0.0320333862304688,0.113913116455078,9.7335090637207,0.000397077325033024,-0.00866059958934784,-0.00247540813870728
-0.0281414794921875,0.126037902832031,9.73156311035156,0.000850347336381674,-0.00912398938089609,-0.00191934022586793
-0.03113525390625,0.127235412597656,9.71854019165039,-0.00115661090239882,-0.00848296657204628,0.000355532014509663
-0.0336799621582031,0.136366424560547,9.7285693359375,0.000375505711417645,-0.0113107115030289,-0.00560968229547143
-0.0249980163574219,0.118104400634766,9.72258178710937,-0.000171241263160482,-0.00826006010174751,-0.000790426216553897
-0.0109272766113281,0.132624206542969,9.72063583374024,0.000734233530238271,-0.0115434713661671,-0.00162958831060678
-0.03113525390625,0.123942260742188,9.73785003662109,-0.000112918030936271,-0.00811119005084038,-0.00195689080283046
-0.0492475891113281,0.116158447265625,9.7477294921875,0.00323840393684804,-0.0108198905363679,-0.00677534798160195
-0.0296383666992188,0.125439147949219,9.72797058105469,-0.000533697486389428,-0.0108603704720736,-0.00301789422519505
-0.0386196899414063,0.116308135986328,9.74204132080078,0.00115075195208192,-0.0122396219521761,-0.00290550873614848
-0.0281414794921875,0.124241638183594,9.71943832397461,0.00378275406546891,-0.00871120020747185,-0.00255077565088868
-0.0166154479980469,0.124990081787109,9.72497680664063,0.000134489629999734,-0.0109770176932216,-0.00174889783374965
-0.0465531921386719,0.134270782470703,9.75042388916016,0.00105754123069346,-0.0101969772949815,-0.00238219765014946
-0.0312849426269531,0.130378875732422,9.7284196472168,0.00298966467380524,-0.0108313420787454,-0.00546960020437837
-0.0309855651855469,0.126486968994141,9.71120544433594,0.000354999356204644,-0.0109700933098793,-0.00199577282182872
-0.0260458374023438,0.126187591552734,9.73934692382813,0.000313720374833792,-0.0125589352101088,-0.00179044320248067
-0.03592529296875,0.125588836669922,9.72901840209961,0.000546214345376939,-0.00914476253092289,-0.00244052079506218
-0.0272433471679688,0.120649108886719,9.71868988037109,6.20516511844471e-05,-0.00895381346344948,-0.00117179087828845
-0.0510438537597656,0.125588836669922,9.73500595092773,0.00363494851626456,-0.0103578325361013,0.000192546547623351
-0.0327818298339844,0.124840393066406,9.72931777954102,0.00123144569806755,-0.00872531440109015,-0.00148417963646352
-0.037122802734375,0.138761444091797,9.72602462768555,0.00103969813790172,-0.0116172414273024,-0.00302748149260879
-0.0381706237792969,0.124690704345703,9.73994567871094,-0.00087697891285643,-0.0100172143429518,-0.00272041908465326
-0.0402662658691406,0.136216735839844,9.7379997253418,-0.00196088547818363,-0.0122622586786747,-0.000369646761100739
-0.02634521484375,0.138611755371094,9.73695190429688,0.00102638232056051,-0.0112582473084331,-0.00120774353854358
-0.0404159545898438,0.131576385498047,9.74039474487305,-4.15453141613398e-05,-0.00963132176548243,-0.00573591608554125
-0.0350271606445312,0.135318603515625,9.73246124267578,-0.000452737382147461,-0.0090542146936059,-0.00373668130487204
-0.0444575500488281,0.127235412597656,9.74069412231445,-0.00129376363474876,-0.00960389152169228,-0.00221228785812855
-0.0282911682128906,0.131277008056641,9.73500595092773,1.78431782842381e-05,-0.0120268352329731,-0.00176620844285935
-0.0396675109863281,0.127085723876953,9.73096435546875,0.00115448026917875,-0.00908564031124115,-0.00331403757445514
-0.0523910522460938,0.120798797607422,9.74518478393555,-0.000487092154799029,-0.00898177735507488,-0.000980842276476324
-0.0200582885742187,0.125738525390625,9.72946746826172,0.00229165004566312,-0.0112760905176401,-0.00292867817915976
-0.0300874328613281,0.116757202148438,9.7284196472168,0.00165115983691067,-0.0130665330216289,-0.00309858797118068
-0.0341290283203125,0.106278991699219,9.74069412231445,0.0015254586469382,-0.0107455886900425,-0.00298487092368305
-0.0354762268066406,0.124690704345703,9.72273147583008,0.00195369496941566,-0.0090206591412425,-0.00368395075201988
-0.0365240478515625,0.130378875732422,9.7335090637207,-0.000981374876573682,-0.00915008876472712,-0.000371244648704305
-0.0211061096191406,0.120200042724609,9.73276062011719,-0.00122398883104324,-0.0113104451447725,-0.0020900487434119
-0.0182620239257813,0.120798797607422,9.72647369384766,0.000835433602333069,-0.00742835504934192,-0.00219710799865425
-0.0261955261230469,0.127235412597656,9.73710159301758,-0.000283626664895564,-0.00915035512298346,-0.00268792849965394
-0.0109272766113281,0.116308135986328,9.73620346069336,0.00263360003009439,-0.00816338788717985,-0.00096113485051319
-0.0249980163574219,0.130678253173828,9.73021591186524,-0.00225170259363949,-0.0105269430205226,-0.00243199872784317
-0.037122802734375,0.128582611083984,9.73395812988281,0.00238193129189312,-0.0112688997760415,-0.00212067505344748
-0.0375718688964844,0.140108642578125,9.73455688476563,0.00264425273053348,-0.0090387687087059,-0.00353028625249863
-0.0270936584472656,0.130827941894531,9.72916809082031,-0.000395479408325627,-0.00792503450065851,-0.00241122604347765
-0.0437091064453125,0.132624206542969,9.72078552246094,0.00246076076291502,-0.00914875697344542,-0.00169110728893429
-0.0440084838867188,0.13172607421875,9.73126373291016,0.00159816292580217,-0.0122401546686888,-0.00367942336015403
-0.0396675109863281,0.119002532958984,9.73291030883789,0.00144476490095258,-0.0103458482772112,-0.00481792446225882
-0.0365240478515625,0.131875762939453,9.72153396606445,0.000870853662490845,-0.0099008334800601,-0.00245303777046502
-0.0392184448242188,0.127983856201172,9.71719299316406,0.000110787499579601,-0.0109312105923891,-0.00232067867182195
-0.0175135803222656,0.123193817138672,9.73695190429688,-0.000104129598184954,-0.00985502731055021,-0.00122398883104324
-0.0270936584472656,0.111368408203125,9.72961715698242,-0.00109402660746127,-0.0107511812821031,-0.00099469069391489
-0.0214054870605469,0.123942260742188,9.73470657348633,0.000239950808463618,-0.00949629954993725,-0.00177765998523682
-0.0176632690429688,0.112116851806641,9.73096435546875,0.000907338981050998,-0.0125493472442031,-8.78843184182188e-06
-0.0458047485351563,0.148191833496094,9.74069412231445,-0.00146553758531809,-0.0119743710383773,-0.00478383619338274
-0.0248483276367188,0.134420471191406,9.72632400512695,0.000305464578559622,-0.011672368273139,-0.00265064416453242
-0.027542724609375,0.122595062255859,9.73889785766602,-0.000265517155639827,-0.00956820510327816,-0.000379234144929796
-0.0380209350585938,0.127534790039063,9.73126373291016,-0.00109083077404648,-0.011558385565877,-0.00318221119232476
-0.029937744140625,0.128732299804688,9.72437805175781,2.15716045204317e-05,-0.0115570537745953,-0.0020370518323034
-0.0320333862304688,0.134869537353516,9.7332096862793,0.00277528003789485,-0.0085045387968421,-0.000807736767455935
-0.0366737365722656,0.124391326904297,9.75326797485352,-0.00248100096359849,-0.00962493009865284,-0.00100694119464606
-0.0288899230957031,0.130229187011719,9.71449859619141,-0.00159842928405851,-0.00955994892865419,-0.0028370653744787
-0.0464035034179688,0.119900665283203,9.72886871337891,-0.00147752172779292,-0.00966141559183598,-0.0018130800453946
-0.0297880554199219,0.127534790039063,9.72318054199219,0.00015100123709999,-0.00873436965048313,-0.00325571442954242
-0.02634521484375,0.132324829101563,9.72333023071289,-0.00263226847164333,-0.00927019771188498,-0.00349859474226832
-0.0344284057617188,0.131576385498047,9.72602462768555,0.00308207632042468,-0.0107517139986157,-0.00221068994142115
-0.0520916748046875,0.123044128417969,9.73051528930664,0.00200882228091359,-0.0109652997925878,-0.00316090579144657
-0.0332308959960938,0.116158447265625,9.73485626220703,8.70853691594675e-05,-0.0111823473125696,-0.00190176337491721
-0.0321830749511719,0.130079498291016,9.73485626220703,-0.000453003711299971,-0.00821878109127283,-0.00138297956436872
-0.0477507019042969,0.120649108886719,9.72138427734375,-0.00205782451666892,-0.0108438590541482,-0.00298087624832988
-0.0209564208984375,0.119152221679688,9.73560470581055,0.00223572365939617,-0.0113171031698585,-0.00479342369362712
-0.0282911682128906,0.121547241210938,9.72812026977539,0.00306370039470494,-0.0104768760502338,-0.00171507569029927
-0.0508941650390625,0.132324829101563,9.73665252685547,0.00190522545017302,-0.0131898382678628,-0.00319339637644589
-0.0300874328613281,0.130079498291016,9.74009536743164,0.00136140792164952,-0.0111141698434949,-0.00348474620841444
-0.0492475891113281,0.115559692382813,9.7379997253418,0.00248952303081751,-0.010666492395103,-0.00213692034594715
-0.0383203125,0.122595062255859,9.733359375,-0.000546746945474297,-0.011468636803329,-0.0025004418566823
-0.0384700012207031,0.120649108886719,9.73291030883789,0.000411724700825289,-0.0121490741148591,-0.00238299649208784
-0.0368234252929688,0.124391326904297,9.73036560058594,0.00250763236545026,-0.0088789789006114,-0.00138031633105129
-0.0351768493652344,0.1197509765625,9.71494766235352,0.00131799839437008,-0.00995622761547565,-0.00432710396125913
-0.0272433471679688,0.116457824707031,9.72602462768555,-0.000228232907829806,-0.00873969588428736,0.000370445690350607
-0.0229023742675781,0.115110626220703,9.73066497802734,0.000317182479193434,-0.0132026206701994,-0.00328527553938329
-0.0229023742675781,0.123642883300781,9.71809112548828,0.0017608820926398,-0.00883663445711136,-0.00263173575513065
-0.0221539306640625,0.128283233642578,9.72767120361328,3.56863565684762e-05,-0.0116382800042629,-0.000977113842964172
-0.02634521484375,0.124241638183594,9.73216186523438,0.00198325607925653,-0.00977752916514874,-0.00174010940827429
-0.0402662658691406,0.123044128417969,9.73036560058594,0.000812796759419143,-0.00863822922110558,-0.0034147051628679
-0.0261955261230469,0.132025451660156,9.72228240966797,0.00133610796183348,-0.0115519938990474,-0.00576521130278707
-0.0425115966796875,0.129480743408203,9.73575439453125,0.000236222389503382,-0.00942066591233015,-0.00370498979464173
-0.0306861877441406,0.131875762939453,9.73440719604492,0.00365385692566633,-0.00983265694230795,-0.00232786918058991
-0.02634521484375,0.129780120849609,9.73635314941406,0.000814660976175219,-0.00906619895249605,-0.00156620505731553
-0.0279917907714844,0.120499420166016,9.73365875244141,-4.98011104355101e-05,-0.00973731558769941,-0.00384480552747846
-0.034727783203125,0.118104400634766,9.72752151489258,-0.000264718197286129,-0.00966008380055428,-0.00304372678510845
-0.0300874328613281,0.125738525390625,9.72677307128906,-0.00262268097139895,-0.00994743965566158,0.000217047621845268
-0.0293389892578125,0.134869537353516,9.73231155395508,-0.000700677686836571,-0.0122880917042494,-0.00307728257030249
-0.029937744140625,0.130079498291016,9.72258178710937,-0.00201361603103578,-0.0119610549882054,-0.00184210855513811
-0.0290396118164063,0.123792572021484,9.73770034790039,0.00274465372785926,-0.00839854497462511,-0.00218592258170247
-0.0390687561035156,0.133522338867188,9.72228240966797,0.00310418056324124,-0.00924383196979761,-0.0029395972378552
-0.0333805847167969,0.117805023193359,9.72497680664063,1.83758111234056e-05,-0.00919909123331308,-0.00232786918058991
-0.0134719848632813,0.130827941894531,9.72273147583008,0.00127698574215174,-0.00881825853139162,-0.00463496567681432
-0.0125738525390625,0.123343505859375,9.73710159301758,0.00153424707241356,-0.00925262086093426,-0.00332841859199107
-0.0278421020507813,0.127534790039063,9.72437805175781,0.000412789959227666,-0.0113000590354204,-0.00255530304275453
-0.0281414794921875,0.124091949462891,9.73844879150391,0.00178857892751694,-0.00989737175405025,-0.00361124635674059
-0.0101788330078125,0.117805023193359,9.74234069824219,0.000551274337340146,-0.00910215172916651,-0.000661795551422983
-0.0341290283203125,0.12693603515625,9.73216186523438,0.00160588615108281,-0.0109549127519131,-0.00415053637698293
-0.0341290283203125,0.124990081787109,9.72003707885742,0.00061678810743615,-0.0095684714615345,-0.00440753158181906
-0.0381706237792969,0.130827941894531,9.7188395690918,-0.000365385698387399,-0.0133522907271981,-0.00294252671301365
-0.047900390625,0.123792572021484,9.74368789672852,0.00054994277888909,-0.00844381842762232,-0.00113184342626482
-0.0392184448242188,0.138013000488281,9.72183334350586,0.00179923162795603,-0.00907898228615522,-0.00115954037755728
-0.0293389892578125,0.127235412597656,9.71794143676758,0.000357396202161908,-0.00811678264290094,-0.00282534747384489
-0.032332763671875,0.132624206542969,9.72602462768555,0.00057923753047362,-0.0112366750836372,-0.00271429377608001
-0.0193098449707031,0.117805023193359,9.72782089233399,0.000133424371597357,-0.0106646288186312,-0.00341683556325734
-0.0318836975097656,0.130827941894531,9.72542587280273,0.00260936515405774,-0.00883769989013672,-0.00240190490148962
-0.0282911682128906,0.142653350830078,9.72572525024414,0.00144423230085522,-0.0104664890095592,-0.00127245835028589
-0.0249980163574219,0.136965179443359,9.73425750732422,0.00172279891557992,-0.0109272161498666,-0.00247860397212207
-0.0235011291503906,0.126337280273438,9.73770034790039,-0.000972586451098323,-0.00870880298316479,-0.00321709853596985
-0.0356259155273438,0.113314361572266,9.74518478393555,0.000737961905542761,-0.0084430193528533,-0.00162426196038723
-0.0309855651855469,0.133073272705078,9.74578353881836,-3.00937208521646e-05,-0.0109035139903426,-0.00206181919202209
-0.0272433471679688,0.142803039550781,9.72437805175781,0.000222373942960985,-0.0108912633731961,-0.00204850360751152
-0.022752685546875,0.141904907226563,9.73934692382813,0.0031915323343128,-0.0111844772472978,-0.00430872850120068
-0.0254470825195313,0.138162689208984,9.73111404418945,0.00157818919979036,-0.00944356899708509,-0.00227487226948142
-0.0229023742675781,0.132773895263672,9.73395812988281,-0.00115581194404513,-0.0106579707935452,-0.00372363184578717
-0.0267942810058594,0.124690704345703,9.73111404418945,0.00125514785759151,-0.0108284130692482,-0.00138830591458827
-0.0270936584472656,0.116158447265625,9.72273147583008,-0.000412789959227666,-0.00923744030296803,-0.00127378990873694
-0.0267942810058594,0.130977630615234,9.74189163208008,0.00100774015299976,-0.00989204552024603,-0.00119655823800713
-0.0238005065917969,0.131576385498047,9.72497680664063,0.00119362876284868,-0.00928005110472441,-0.00348607776686549
-0.0447569274902344,0.130827941894531,9.7284196472168,-0.00122265727259219,-0.0101184137165546,-0.001888447557576
-0.0408650207519531,0.135767669677734,9.71629486083984,0.000722781929653138,-0.0102007053792477,-0.00579743552953005
-0.0315843200683594,0.123642883300781,9.72737182617188,0.000622380757704377,-0.0107016460970044,-0.00344506511464715
-0.0417631530761719,0.117805023193359,9.73994567871094,-0.00206474866718054,-0.0095911081880331,-0.000595482822973281
-0.0420625305175781,0.120948486328125,9.73650283813477,0.00307115726172924,-0.0103964479640126,-0.00157579244114459
-0.0309855651855469,0.118254089355469,9.74563385009766,-0.00097338535124436,-0.00959696713835001,-0.001643170369789
-0.0392184448242188,0.117206268310547,9.72303085327149,0.00173611473292112,-0.0117994016036391,-0.0025499768089503
-0.0396675109863281,0.1293310546875,9.73979598999023,0.00286636035889387,-0.0110390689224005,-0.00462085055187345
-0.0223036193847656,0.113913116455078,9.72797058105469,-0.00328927021473646,-0.0105804726481438,-0.00250656716525555
-0.0332308959960938,0.131426696777344,9.73695190429688,0.00233719008974731,-0.0131980935111642,-0.00484429020434618
-0.0249980163574219,0.137863311767578,9.73111404418945,0.00098643486853689,-0.00852371286600828,-0.00375319295562804
-0.0208067321777344,0.132025451660156,9.71539672851562,0.00259844632819295,-0.0105724828317761,-0.0027009779587388
-0.0342787170410156,0.130827941894531,9.70985824584961,0.002566754585132,-0.0113631756976247,-0.00314146489836276
-0.0239501953125,0.133522338867188,9.74024505615234,-4.87358483951539e-05,-0.0112169682979584,-0.00310364784672856
-0.029937744140625,0.116757202148438,9.73695190429688,0.000627174449618906,-0.00836925022304058,-0.00284398975782096
-0.0217048645019531,0.135767669677734,9.72916809082031,0.000858070503454655,-0.00986674521118402,-0.00159177137538791
-0.0377215576171875,0.130378875732422,9.72812026977539,0.000509729026816785,-0.00748215103521943,-0.00244717882014811
-0.0465531921386719,0.133672027587891,9.7332096862793,0.00141866586636752,-0.0101676825433969,-0.00164982827845961
-0.0266445922851563,0.131576385498047,9.72482711791992,0.00151347438804805,-0.0106944562867284,-0.00333640817552805
-0.0296383666992188,0.121397552490234,9.71629486083984,0.00244291755370796,-0.00978019274771214,-0.00120880885515362
-0.0248483276367188,0.120499420166016,9.71330108642578,0.000463390024378896,-0.0101306643337011,-0.000757403031457216
-0.0197589111328125,0.122595062255859,9.72722213745117,0.000907871581148356,-0.0102643556892872,-0.00374946440570056
-0.0401165771484375,0.11735595703125,9.73276062011719,-0.00149909337051213,-0.0100132189691067,-0.00296622887253761
-0.0441581726074219,0.121846618652344,9.72916809082031,0.000911067414563149,-0.00835087429732084,-0.0020823257509619
-0.044307861328125,0.134420471191406,9.72602462768555,0.00375026348046958,-0.0119304293766618,-0.00238033337518573
-0.0293389892578125,0.113164672851563,9.72767120361328,-0.000578971230424941,-0.0120358904823661,-0.00298540364019573
-0.0282911682128906,0.136965179443359,9.73126373291016,-0.000623712316155434,-0.00979990046471357,-0.00262188212946057
-0.037122802734375,0.125439147949219,9.72677307128906,0.00130015518516302,-0.0102680837735534,-0.00266635697335005
-0.0549357604980469,0.125139770507812,9.71195388793945,0.00370578863658011,-0.00804487708956003,-0.00231535220518708
-0.0535885620117188,0.128432922363281,9.73755065917969,-0.00225969217717648,-0.0105868643149734,-0.000720118754543364
-0.0188607788085938,0.122894439697266,9.73530532836914,0.00261415890417993,-0.0102355936542153,-0.00044075315236114
-0.0281414794921875,0.129181365966797,9.7239289855957,0.000713194545824081,-0.0121432151645422,-0.00567519618198276
-0.0279917907714844,0.135019226074219,9.73021591186524,-0.000613858632277697,-0.00844062305986881,-0.00309059838764369
-0.0218545532226562,0.123493194580078,9.73485626220703,0.00178192101884633,-0.0115165738388896,-0.00167113356292248
-0.0302371215820313,0.125588836669922,9.742939453125,0.000213585517485626,-0.010650247335434,-0.00416305335238576
-0.0221539306640625,0.128732299804688,9.72916809082031,0.000333960400894284,-0.0104550374671817,-0.00234917434863746
-0.0238005065917969,0.130678253173828,9.73725128173828,0.000603472290094942,-0.00841505639255047,-0.00240589980967343
-0.0411643981933594,0.134420471191406,9.72497680664063,-0.00331909768283367,-0.011665178462863,-0.00206022150814533
-0.0341290283203125,0.133672027587891,9.72961715698242,-0.00223838677629828,-0.0118457404896617,-0.00314386165700853
-0.0396675109863281,0.137863311767578,9.72617431640625,0.000935302174184471,-0.0108273476362228,-0.00197047297842801
-0.0273930358886719,0.118852844238281,9.73261093139648,0.00270470627583563,-0.0101682152599096,-0.00198112544603646
-0.0484991455078125,0.12693603515625,9.73126373291016,0.00116832880303264,-0.0106462528929114,-0.00376464449800551
-0.03113525390625,0.124241638183594,9.74084381103516,0.000860999978613108,-0.0121559984982014,-0.00367356440983713
-0.0302371215820313,0.115260314941406,9.74219100952148,-0.000920921098440886,-0.0085466168820858,-0.000347276189131662
-0.0435594177246094,0.132025451660156,9.73725128173828,0.00184130959678441,-0.0122356275096536,-0.0034179009962827
-0.0330812072753906,0.129630432128906,9.73545501708984,0.00307089113630354,-0.0137309925630689,-0.00450793281197548
-0.0296383666992188,0.11735595703125,9.73156311035156,0.000703607161995023,-0.00861292891204357,-0.0013081447687
-0.0470022583007813,0.125289459228516,9.73515563964844,0.000241548710619099,-0.00912745203822851,-0.0037513286806643
-0.03113525390625,0.135917358398437,9.71360046386719,-0.000364320439985022,-0.00841345824301243,-0.00279924855567515
-0.0402662658691406,0.126486968994141,9.71689361572266,0.000563258538022637,-0.0116928750649095,-0.00290124770253897
-0.0221539306640625,0.133222961425781,9.71839050292969,0.00232999958097935,-0.00965529028326273,-0.00401897635310888
-0.0338296508789062,0.138013000488281,9.72482711791992,0.00216674781404436,-0.0102390553802252,-0.0020735370926559
-0.0182620239257813,0.116906890869141,9.73455688476563,0.000128896994283423,-0.0112633071839809,-0.00309592485427856
-0.0324824523925781,0.112116851806641,9.72662338256836,0.00167326407972723,-0.00944330263882875,-0.00295344553887844
-0.0314346313476562,0.129480743408203,9.7287190246582,0.00238619232550263,-0.00975569151341915,-0.00436092633754015
-0.0368234252929688,0.134869537353516,9.74473571777344,-5.45948023500387e-05,-0.0102174840867519,-0.00459368666633964
-0.0368234252929688,0.134719848632812,9.73261093139648,-0.00117338879499584,-0.00697721587494016,-0.00036938043194823
-0.0398171997070313,0.141006774902344,9.73141342163086,0.00142532377503812,-0.0089197251945734,-0.00396438175812364
-0.025147705078125,0.130977630615234,9.74713073730469,0.000428768922574818,-0.00957379769533873,-0.00126686575822532
-0.0293389892578125,0.120649108886719,9.72333023071289,0.00046605319948867,-0.0102872587740421,-0.00288340449333191
-0.0354762268066406,0.114212493896484,9.73231155395508,0.000859934720210731,-0.00910534802824259,-0.00218219426460564
-0.0255967712402344,0.117206268310547,9.74204132080078,0.00112385395914316,-0.0075465994887054,-0.00291962339542806
-0.01916015625,0.135767669677734,9.73725128173828,-1.46473857967067e-05,-0.0120822293683887,-0.0017134778900072
-0.0378712463378906,0.133672027587891,9.72707244873047,0.00111985928378999,-0.0115783587098122,-0.00411671446636319
-0.025147705078125,0.125738525390625,9.71988739013672,-0.000743554555810988,-0.0106606334447861,0.000422377343056723
-0.0440084838867188,0.123792572021484,9.73261093139648,0.00264718220569193,-0.0117296269163489,-0.00180668849498034
-0.0332308959960938,0.129929809570312,9.73635314941406,0.00156567234080285,-0.0101604918017983,-0.00358860963024199
-0.0315843200683594,0.133672027587891,9.73919723510742,0.00314279645681381,-0.009490174241364,-0.00102744752075523
-0.0212557983398437,0.134270782470703,9.74563385009766,0.00124449515715241,-0.011223359964788,-0.00236195744946599
-0.0296383666992188,0.136965179443359,9.74129287719727,-0.00304053095169365,-0.0116744991391897,-0.0020237360149622
-0.0335302734375,0.128133544921875,9.73949661254883,-9.85369570116745e-06,-0.00994584150612354,-0.00119522667955607
-0.0326321411132812,0.123942260742188,9.73575439453125,-0.00132945005316287,-0.00872345082461834,-0.00060853228205815
-0.0333805847167969,0.134869537353516,9.73081466674805,0.00125434889923781,-0.0101786013692617,-0.00408981647342443
-0.0362246704101562,0.132474517822266,9.73994567871094,-0.000942226382903755,-0.00935169029980898,-0.00116193713620305
-0.0272433471679688,0.129181365966797,9.72063583374024,-0.000598145998083055,-0.00989204552024603,-0.000709466112311929
-0.0447569274902344,0.132324829101563,9.72797058105469,0.00107431912329048,-0.00775246182456613,-0.00264132325537503
-0.0341290283203125,0.128432922363281,9.72303085327149,-7.45685101719573e-05,-0.00974450632929802,-0.00268926005810499
-0.0303868103027344,0.119900665283203,9.72437805175781,-0.000773914624005556,-0.00953464955091476,-0.00269618420861661
-0.0314346313476562,0.120349731445313,9.7287190246582,0.0018056231783703,-0.00973864737898111,-0.00256941770203412
-0.0363743591308594,0.129630432128906,9.73111404418945,0.00140721432399005,-0.0109967244789004,-0.00243546068668365
-0.0233514404296875,0.129780120849609,9.72901840209961,0.00263253482989967,-0.0133224632591009,-0.00176354520954192
-0.0211061096191406,0.134869537353516,9.72168365478516,0.000971521134488285,-0.00734925922006369,0.000383495207643136
-0.020357666015625,0.134570159912109,9.73425750732422,0.00140401849057525,-0.0101178819313645,-0.000309991941321641
-0.0380209350585938,0.130378875732422,9.73440719604492,0.00259205466136336,-0.0107517139986157,-0.0037422738969326
-0.0484991455078125,0.121996307373047,9.73216186523438,0.00167832407169044,-0.00838469620794058,-0.000857537845149636
-0.0504450988769531,0.125588836669922,9.73904754638672,0.00104102969635278,-0.0114140417426825,-0.00341230817139149
-0.0293389892578125,0.128582611083984,9.74249038696289,-0.000215449734241702,-0.00874821748584509,-0.00102318648714572
-0.0214054870605469,0.121547241210938,9.74159225463867,0.00319952168501914,-0.00998152792453766,-0.00321709853596985
-0.0374221801757812,0.117206268310547,9.7335090637207,-0.000209058140171692,-0.00920521654188633,-0.00197899504564703
-0.0393681335449219,0.132324829101563,9.71330108642578,-0.000216781307244673,-0.0101881893351674,-0.00303360680118203
-0.0332308959960938,0.141006774902344,9.72512649536133,0.00250310497358441,-0.00898470636457205,-0.0035505264531821
-0.0353265380859375,0.140258331298828,9.73305999755859,0.000253000296652317,-0.0105248121544719,-0.00294518982991576
-0.0384700012207031,0.144150238037109,9.73455688476563,-0.000356863572960719,-0.010765828192234,-0.00251668714918196
-0.044307861328125,0.133971405029297,9.73126373291016,-0.00258805998601019,-0.0115408087149262,-0.00252680713310838
-0.0291893005371094,0.141455841064453,9.72587493896484,-0.00120800989679992,-0.0126502811908722,-0.00291296560317278
-0.03113525390625,0.121696929931641,9.71045700073242,-0.00249351770617068,-0.0118944765999913,-0.00532925175502896
-0.0321830749511719,0.119601287841797,9.72931777954102,-0.000375772040570155,-0.0121743744239211,-0.00390685722231865
-0.02634521484375,0.116906890869141,9.75581268310547,0.00252121454104781,-0.013275858014822,-0.0023403859231621
-0.0242495727539063,0.126037902832031,9.73979598999023,0.00123730464838445,-0.00853516533970833,-0.0041963430121541
-0.0426612854003906,0.127834167480469,9.72662338256836,0.000873516837600619,-0.0105567704886198,-0.00354040623642504
-0.0378712463378906,0.133821716308594,9.73096435546875,0.00159203773364425,-0.0105780754238367,-0.00355318957008421
-0.0362246704101562,0.14609619140625,9.73545501708984,0.000925981090404093,-0.00951281096786261,-0.00227753538638353
-0.0335302734375,0.138162689208984,9.72677307128906,-0.000294012977974489,-0.00891759525984526,-0.00122026039753109
-0.0396675109863281,0.124690704345703,9.74069412231445,0.00129562790971249,-0.0086241140961647,-0.00273346854373813
-0.0423619079589844,0.122744750976563,9.73365875244141,-7.16390350135043e-05,-0.0122113926336169,-0.002468750346452
-0.028740234375,0.126037902832031,9.71674392700195,0.000532365869730711,-0.00957486312836409,-0.00306716258637607
-0.0270936584472656,0.104333038330078,9.72542587280273,0.00238139857538044,-0.00800945702940226,-0.001577656599693
-0.0353265380859375,0.105680236816406,9.72886871337891,-0.00168897677212954,-0.011216701939702,-0.00272760959342122
-0.0356259155273438,0.125888214111328,9.72901840209961,0.00170389050617814,-0.00603072810918093,-0.00347116403281689
-0.0378712463378906,0.123792572021484,9.72407867431641,0.000172040206962265,-0.0103112272918224,-0.000679372402373701
-0.0422122192382813,0.128881988525391,9.71015762329102,0.00183491792995483,-0.00998685415834188,-0.000801611458882689
-0.0333805847167969,0.136067047119141,9.72692276000977,-0.000156593872816302,-0.0117932762950659,-0.00280324323102832
-0.0305364990234375,0.117805023193359,9.7239289855957,-0.000990163302049041,-0.00910614710301161,0.0011837751371786
-0.029937744140625,0.131277008056641,9.73111404418945,0.00234011956490576,-0.00808056350797415,-0.00415399856865406
-0.02634521484375,0.121547241210938,9.74698104858398,-0.000338487763656303,-0.00976740941405296,-0.000963797967415303
-0.0261955261230469,0.120349731445313,9.73081466674805,-0.00144982489291579,-0.00752050057053566,-0.00238805660046637
-0.0255967712402344,0.109422454833984,9.72557556152344,0.000765392498578876,-0.0112052503973246,-0.00202986132353544
-0.0220042419433594,0.130079498291016,9.73425750732422,-0.000694552378263324,-0.0124249784275889,-0.00278273690491915
-0.0300874328613281,0.133672027587891,9.73395812988281,0.000387223612051457,-0.0121109914034605,-0.00191108440048993
-0.0252973937988281,0.127684478759766,9.73635314941406,-0.000237021333305165,-0.0100307958200574,-0.000859135761857033
-0.0223036193847656,0.143102416992188,9.73261093139648,0.00123810360673815,-0.00938311498612165,-0.00242321030236781
-0.0386196899414063,0.119601287841797,9.73500595092773,0.00220989109948277,-0.0111871408298612,-0.00366717274300754
-0.0365240478515625,0.130827941894531,9.72527618408203,0.00238486076705158,-0.00934449955821037,-0.00233053229749203
-0.0402662658691406,0.133073272705078,9.74638229370117,-0.000634364958386868,-0.0111312139779329,-0.00454601598903537
-0.0284408569335938,0.137114868164063,9.73081466674805,-5.5926382628968e-05,-0.009941047988832,-0.000130761211039498
-0.0425115966796875,0.137863311767578,9.72467742919922,0.00407756585627794,-0.00892878044396639,-0.0026453179307282
-0.029937744140625,0.124541015625,9.72123458862305,0.00111293501686305,-0.0091998903080821,-0.00300777400843799
-0.0302371215820313,0.120499420166016,9.72243209838867,-0.000969923275988549,-0.0113565176725388,-0.00228845421224833
-0.0282911682128906,0.127983856201172,9.72916809082031,0.00048682585475035,-0.00859561841934919,-0.00126473524142057
-0.0276924133300781,0.122595062255859,9.74264007568359,0.00309459306299686,-0.0122167188674212,-0.00251162727363408
-0.0378712463378906,0.131576385498047,9.73246124267578,-0.000158191760419868,-0.00940255634486675,-0.00354040623642504
-0.0333805847167969,0.132624206542969,9.72901840209961,-0.00189377379138023,-0.0121048660948873,-0.000897751597221941
-0.0288899230957031,0.136965179443359,9.72048614501953,0.00161973456852138,-0.010813232511282,-0.00231109117157757
-0.029937744140625,0.129181365966797,9.73844879150391,0.00132359110284597,-0.0103434510529041,-0.00349460006691515
-0.0329315185546875,0.129480743408203,9.73904754638672,0.00141893222462386,-0.0112127074971795,-0.0023419838398695
-0.0339793395996094,0.130977630615234,9.73455688476563,0.00128950260113925,-0.0101583618670702,-0.0042868903838098
-0.0303868103027344,0.134270782470703,9.73725128173828,0.00126207200810313,-0.0107959220185876,-0.00124715827405453
-0.0281414794921875,0.13412109375,9.72542587280273,-0.000157392816618085,-0.0118068587034941,-0.000887365255039185
-0.0238005065917969,0.127235412597656,9.74099349975586,0.00213452358730137,-0.00810213480144739,-0.00206634658388793
-0.0335302734375,0.133222961425781,9.73740097045899,0.000531833269633353,-0.0102739427238703,-0.0023901870008558
-0.0428109741210938,0.143850860595703,9.73874816894531,0.00130414997693151,-0.00979910138994455,-0.00267647695727646
-0.0537382507324219,0.127834167480469,9.74234069824219,0.00465920008718967,-0.00951893627643585,-0.00222001108340919
-0.0399668884277344,0.123942260742188,9.73605377197266,0.000190149701666087,-0.00806937832385302,-0.00203545391559601
-0.0218545532226562,0.124840393066406,9.73395812988281,-0.000426105776568875,-0.00834980886429548,-0.0025110945571214
-0.020357666015625,0.137713623046875,9.73425750732422,-0.00198192452080548,-0.00921560265123844,-0.00253879139199853
-0.0330812072753906,0.13172607421875,9.72602462768555,0.00113264238461852,-0.00958604831248522,-0.000495880609378219
-0.0254470825195313,0.141156463623047,9.73156311035156,0.00148151651956141,-0.00926886592060328,-0.00122904882300645
-0.0456550598144531,0.125439147949219,9.74937606811523,-5.0600060603756e-06,-0.00900015328079462,-0.00138724059797823
-0.0465531921386719,0.125439147949219,9.73395812988281,-0.000896153680514544,-0.0106292087584734,-0.00313081219792366
-0.0389190673828125,0.132324829101563,9.71764205932617,-0.000368581502698362,-0.0102331964299083,-0.00318460795097053
-0.0233514404296875,0.127983856201172,9.74159225463867,0.00170255883131176,-0.0126798423007131,-0.00356304319575429
-0.0266445922851563,0.130378875732422,9.73874816894531,-0.000241815025219694,-0.00946593936532736,-0.00445546861737967
-0.0242495727539063,0.125588836669922,9.72737182617188,-0.00154410081449896,-0.0125496136024594,-0.00261549046263099
-0.0458047485351563,0.129480743408203,9.74264007568359,-0.00226981216110289,-0.0081487400457263,-0.00298566976562142
-0.037122802734375,0.122445373535156,9.73036560058594,0.0011233213590458,-0.00963664799928665,-0.000801611458882689
-0.0354762268066406,0.127235412597656,9.73156311035156,0.000133690686197951,-0.00879508908838034,-0.00280350958928466
-0.0264949035644531,0.12214599609375,9.73725128173828,0.00108736869879067,-0.00961667485535145,-0.00280830333940685
-0.0205073547363281,0.131576385498047,9.73305999755859,0.00154703028965741,-0.0114233633503318,-0.00225303415209055
-0.0273930358886719,0.125139770507812,9.73066497802734,-0.00209857081063092,-0.0114467991515994,-0.00278034014627337
-0.0255967712402344,0.123493194580078,9.72782089233399,0.000732901913579553,-0.0115661080926657,-0.00658493209630251
-0.00823287963867188,0.126636657714844,9.72258178710937,0.000351803580997512,-0.0120582608506083,-0.00285570765845478
-0.0248483276367188,0.110470275878906,9.73470657348633,-0.000480700575280935,-0.0105581022799015,-0.0017102820565924
-0.0221539306640625,0.112116851806641,9.72752151489258,0.00142053014133126,-0.0109684951603413,-0.00437024747952819
-0.0336799621582031,0.0895138549804688,9.74204132080078,0.00228738901205361,-0.0109937954694033,-0.00144796061795205
-0.0252973937988281,0.0809815979003906,9.7287190246582,-0.00160561979282647,-0.0108830081298947,-0.000933437957428396
-0.028740234375,0.150137786865234,9.74518478393555,0.000281496118986979,-0.00976927392184734,-0.00326929660513997
-0.0173638916015625,0.128582611083984,9.72318054199219,0.00225543114356697,-0.0115458685904741,-0.00316756381653249
-0.0389190673828125,0.147293701171875,9.74668167114258,0.00044474788592197,-0.0106931244954467,-0.00250230613164604
-0.0431103515625,0.149688720703125,9.72422836303711,0.000957406417001039,-0.0101413177326322,-0.00383441941812634
-0.0369731140136719,0.155975646972656,9.74114318847656,0.000828243093565106,-0.0116366818547249,0.000181361261638813
-0.0354762268066406,0.144898681640625,9.73785003662109,-0.00215902458876371,-0.00908723846077919,-0.00150255544576794
-0.0374221801757812,0.127085723876953,9.73440719604492,0.000244211871176958,-0.0092936335131526,-0.0019307917682454
-0.0332308959960938,0.120948486328125,9.71794143676758,-0.0025350630749017,-0.0112595790997148,-0.000985635910183191
-0.0232017517089844,0.104782104492188,9.7189892578125,0.000943557941354811,-0.00878124125301838,-0.00260510412044823
-0.010777587890625,0.100141754150391,9.72407867431641,-0.000645816558972001,-0.00899722333997488,-0.00141200795769691
-0.0158670043945313,0.10777587890625,9.73246124267578,-0.000992826418951154,-0.00932532455772161,-0.00211055506952107
-0.0486488342285156,0.135617980957031,9.7382991027832,0.0012932310346514,-0.00847444497048855,-7.13727131369524e-05
-0.0543370056152344,0.148790588378906,9.7332096862793,0.001520398654975,-0.00930535141378641,-0.00284372339956462
-0.0522413635253906,0.139958953857422,9.72198303222656,0.00202160561457276,-0.00953012146055698,-0.00466985302045941
-0.0386196899414063,0.1293310546875,9.72093521118164,-0.00189856754150242,-0.0106531772762537,0.00111479917541146
-0.0314346313476562,0.128881988525391,9.72587493896484,-0.000403468904551119,-0.0108134988695383,-0.0018303906545043
-0.0279917907714844,0.139809265136719,9.71928863525391,0.00298353936523199,-0.00989284459501505,-0.00316090579144657
-0.0185614013671875,0.128432922363281,9.7239289855957,0.00236701755784452,-0.00958178751170635,-0.00209031510166824
-0.0178129577636719,0.120499420166016,9.73305999755859,0.00230629742145538,-0.00796950981020927,-0.00295664137229323
-0.0378712463378906,0.121098175048828,9.72033645629883,0.000642354425508529,-0.00952852424234152,-0.0058158109895885
-0.0344284057617188,0.124241638183594,9.7189892578125,0.00352069898508489,-0.0110715599730611,-0.00264744833111763
-0.0294886779785156,0.132923583984375,9.73395812988281,-0.00102052337024361,-0.0121179157868028,-0.0020884508267045
-0.0218545532226562,0.142803039550781,9.72497680664063,0.000157126502017491,-0.00952373072504997,-0.00123117933981121
-0.0314346313476562,0.141156463623047,9.73276062011719,-0.000320644583553076,-0.0102385226637125,-0.00210629403591156
-0.0249980163574219,0.143102416992188,9.73770034790039,-0.00253932410851121,-0.0111533189192414,-0.00278619909659028
-0.022752685546875,0.133222961425781,9.73141342163086,-0.000248739233938977,-0.0125690549612045,-0.00306077091954648
-0.0246986389160156,0.119900665283203,9.71539672851562,0.00121919508092105,-0.01077248621732,-0.00208685290999711
-0.0184117126464844,0.128432922363281,9.73365875244141,-0.000213319202885032,-0.00922146160155535,-0.0037254961207509
-0.0281414794921875,0.138611755371094,9.72767120361328,-0.000401338358642533,-0.00976714305579662,-0.00235583237372339
-0.044307861328125,0.118553466796875,9.71794143676758,-0.00297262030653656,-0.00914156623184681,-0.00163997453637421
-0.0297880554199219,0.123942260742188,9.74802886962891,0.000156593872816302,-0.0115237645804882,-0.00143304700031877
-0.0152682495117188,0.151484985351563,9.74338851928711,0.0031973912846297,-0.0114060528576374,-0.0025576998014003
-0.0269439697265625,0.136665802001953,9.7092594909668,-0.00070520507870242,-0.00921799894422293,-0.00340192206203938
-0.0484991455078125,0.134570159912109,9.72767120361328,0.00111453293357044,-0.008124771527946,-0.00297208782285452
-0.0432600402832031,0.128432922363281,9.74518478393555,0.0015097459545359,-0.00770452478900552,-0.00539902644231915
-0.0257464599609375,0.130378875732422,9.72063583374024,0.000329166708979756,-0.00964517053216696,-0.000255130842560902
-0.0230520629882813,0.1149609375,9.72617431640625,0.00013422331539914,-0.0107703562825918,-0.00293853203766048
-0.02634521484375,0.134719848632812,9.72901840209961,-0.000614923890680075,-0.00876446347683668,-0.00205995514988899
-0.0335302734375,0.1293310546875,9.73261093139648,-0.00091053475625813,-0.0122502744197845,-0.00306636374443769
-0.0402662658691406,0.113763427734375,9.7379997253418,0.00105141603853554,-0.0102587630972266,-0.00426132418215275
-0.0559835815429688,0.113314361572266,9.73261093139648,0.00259285350330174,-0.00985209830105305,-0.00202932883985341
-0.0336799621582031,0.128582611083984,9.72572525024414,-0.0014183996245265,-0.00976234953850508,-0.00102478440385312
-0.0281414794921875,0.127085723876953,9.72273147583008,0.00185249489732087,-0.010690993629396,-0.00330365123227239
-0.022752685546875,0.134869537353516,9.73710159301758,-1.331580506303e-06,-0.010783139616251,-0.00265144323930144
-0.0363743591308594,0.134270782470703,9.72886871337891,0.00359899597242475,-0.0119828935712576,-0.00253959046676755
-0.0431103515625,0.131875762939453,9.72557556152344,0.00364347058348358,-0.0132396388798952,-0.00389753631316125
-0.0402662658691406,0.130977630615234,9.72542587280273,-7.82969364081509e-05,-0.00814075116068125,-0.00506559852510691
-0.0338296508789062,0.128283233642578,9.71345077514649,-0.00137845217250288,-0.00957752577960491,-0.00363255175761878
-0.0270936584472656,0.127385101318359,9.71180419921875,0.00180029682815075,-0.00982413440942764,-0.00314732384867966
-0.0273930358886719,0.119451599121094,9.76419525146484,-0.0024671524297446,-0.0119780991226435,-0.00272973999381065
-0.0194595336914062,0.122744750976563,9.69923034667969,-0.000892691605258733,-0.0115211009979248,-0.000694286078214645
-0.0526904296875,0.124091949462891,9.73276062011719,0.00228499225340784,-0.00974770169705153,-0.00255263992585242
-0.0293389892578125,0.117206268310547,9.74368789672852,0.000929975823964924,-0.0117205716669559,-0.000994956935755908
-0.02634521484375,0.122445373535156,9.733359375,0.00068416609428823,-0.0121155185624957,-0.00507412059232593
-0.0362246704101562,0.129480743408203,9.72572525024414,-0.000899083155672997,-0.0108268149197102,-0.0010146644199267
-0.0239501953125,0.130229187011719,9.73500595092773,0.001283377292566,-0.00835912954062223,-0.0028458540327847
-0.0242495727539063,0.123343505859375,9.7287190246582,-0.00228872057050467,-0.0125200524926186,-0.003703125519678
-0.03592529296875,0.136366424560547,9.72931777954102,-0.000716390321031213,-0.0100614223629236,-0.00243705860339105
-0.0148191833496094,0.132025451660156,9.73006622314453,-0.00196035276167095,-0.0113274892792106,-0.00149350077845156
-0.0332308959960938,0.133073272705078,9.73186248779297,-0.00155928079038858,-0.010471548885107,-0.000127565421280451
-0.0413140869140625,0.126636657714844,9.7478791809082,-0.000421844713855535,-0.0104973819106817,-0.0014772554859519
-0.0205073547363281,0.118403778076172,9.72767120361328,0.0013579458463937,-0.0115296235308051,-0.00354386842809618
-0.0318836975097656,0.117805023193359,9.73500595092773,0.000520647969096899,-0.00814421288669109,-0.00105967174749821
-0.0173638916015625,0.09580078125,9.73425750732422,0.00240563345141709,-0.01165612321347,-0.00406398391351104
-0.0236508178710938,0.1197509765625,9.72767120361328,0.000577373313717544,-0.00912319123744965,-0.00185515801422298
-0.0243992614746094,0.123343505859375,9.73530532836914,-0.00152146397158504,-0.0122563997283578,-0.00389220984652638
-0.0517922973632813,0.133522338867188,9.70431976318359,0.00241415551863611,-0.0119288312271237,0.00103437178768218
-0.0413140869140625,0.127235412597656,9.76988342285156,0.000831438868772238,-0.00930188875645399,-0.00307621737010777
-0.0208067321777344,0.143102416992188,9.72407867431641,0.00245143985375762,-0.0044892905279994,-0.00286023505032063
-0.0254470825195313,0.128732299804688,9.77572128295899,0.00416598282754421,-0.00519928941503167,-0.00369833176955581
-0.0218545532226562,0.114362182617188,9.74353820800781,0.00166633992921561,-0.00623925356194377,-0.00171321153175086
-0.0396675109863281,0.127684478759766,9.71494766235352,-1.03863285403349e-05,-0.0123733123764396,-0.00297768041491508
-0.0383203125,0.121098175048828,9.69563781738281,-0.00313826906494796,-0.0105788744986057,-0.00234571215696633
-0.017962646484375,0.115709381103516,9.73785003662109,-0.00100374536123127,-0.0120372213423252,-0.00144955853465945
-0.0148191833496094,0.107626190185547,9.72961715698242,0.00179097580257803,-0.0088622011244297,-0.00224717520177364
-0.0434097290039063,0.101788330078125,9.75955490112305,-0.000383761507691815,-0.00963398534804583,-0.00200243084691465
-0.0329315185546875,0.132025451660156,9.72467742919922,7.77642999310046e-05,-0.0112792858853936,-0.00226421956904233
-0.0269439697265625,0.136216735839844,9.73141342163086,0.000812796759419143,-0.0117506654933095,-0.00336969760246575
-0.0269439697265625,0.138761444091797,9.72991653442383,0.0011060107499361,-0.011189803481102,-0.00239045335911214
-0.027542724609375,0.133222961425781,9.73859848022461,-9.85369624686427e-05,-0.0114201670512557,-0.00214597512967885
-0.0526904296875,0.124091949462891,9.73186248779297,0.000278566643828526,-0.0100928479805589,-0.00340405246242881
-0.0351768493652344,0.126636657714844,9.74114318847656,0.0021819279063493,-0.00565602164715528,-0.00164956192020327
-0.009580078125,0.11735595703125,9.74114318847656,0.0021140172611922,-0.00911520142108202,-0.00117844878695905
-0.0106278991699219,0.129929809570312,9.72886871337891,0.00442537479102612,-0.0127818416804075,-0.00368315167725086
-0.0369731140136719,0.114811248779297,9.70596633911133,0.000591221731156111,-0.011107511818409,-0.00126713200006634
-0.0377215576171875,0.113164672851563,9.74219100952148,-0.000135022259200923,-0.013260412029922,-0.00296596251428127
-0.034727783203125,0.137414245605469,9.71659423828125,0.000990163302049041,-0.0115605155006051,-0.00293746660463512
-0.0434097290039063,0.146395568847656,9.73740097045899,0.0014839133946225,-0.0108760837465525,-0.00267248204909265
-0.0212557983398437,0.143252105712891,9.74338851928711,0.00019734023953788,-0.0130010200664401,-0.00184290751349181
-0.0405656433105469,0.125439147949219,9.72752151489258,-0.000200802343897521,-0.0101407850161195,-0.00197100546211004
-0.0212557983398437,0.117655334472656,9.73575439453125,0.0023510386236012,-0.0110712936148047,-0.00245117349550128
-0.0169148254394531,0.123942260742188,9.74249038696289,-0.00257048313505948,-0.00906699802726507,-0.00118510669562966
-0.0212557983398437,0.109572143554688,9.7335090637207,0.000353401468601078,-0.0108987204730511,-0.00243466184474528
-0.032332763671875,0.111967163085938,9.73171279907227,-0.000435160531196743,-0.00975835509598255,-0.00170468934811652
-0.0339793395996094,0.114062805175781,9.72333023071289,0.000845287344418466,-0.00796737894415855,-0.00190282857511193
-0.0357756042480469,0.113913116455078,9.71375015258789,-0.00115101819392294,-0.0099261337891221,-0.00176034949254245
-0.0410147094726563,0.140258331298828,9.76239898681641,0.00171161361504346,-0.0066469837911427,-0.00222533731721342
-0.0249980163574219,0.147593078613281,9.75102264404297,0.00126366992481053,-0.012498214840889,-0.00376091594807804
-0.0209564208984375,0.147892456054688,9.69773345947266,-0.00143917219247669,-0.00928218197077513,-0.00173132098279893
-0.0390687561035156,0.126486968994141,9.76599151611328,-0.000361390964826569,-0.0083071980625391,-0.00234091863967478
-0.0302371215820313,0.119451599121094,9.71285202026367,0.00042370893061161,-0.00902491994202137,-0.00156540609896183
-0.0375718688964844,0.127834167480469,9.74997482299805,-0.00032756882137619,-0.00947898905724287,-0.00160322291776538
-0.0249980163574219,0.117655334472656,9.74084381103516,-7.56337758502923e-05,-0.011493937112391,-0.0029031119775027
-0.0182620239257813,0.125439147949219,9.71614517211914,0.00138910475652665,-0.0118284299969673,-0.00558811100199819
-0.0278421020507813,0.143252105712891,9.72557556152344,-0.000551806995645165,-0.0119227059185505,-0.002174471039325
-0.0339793395996094,0.132474517822266,9.73710159301758,0.000527838536072522,-0.00781051861122251,-0.0018287927377969
-0.0540376281738281,0.109422454833984,9.73291030883789,0.000442883698269725,-0.00857191625982523,-0.00115927401930094
-0.0297880554199219,0.132324829101563,9.7236296081543,0.00174916419200599,-0.00962146837264299,-0.00310737639665604
-0.0257464599609375,0.135318603515625,9.7427897644043,0.000977113842964172,-0.0101567637175322,-0.00337529042735696
-0.0321830749511719,0.113464050292969,9.74009536743164,0.0010562096722424,-0.00816898047924042,-0.00316889537498355
-0.0338296508789062,0.109871520996094,9.72288116455078,0.000262321351328865,-0.0109519837424159,-0.00181547692045569
-0.0350271606445312,0.1101708984375,9.73455688476563,0.000155794929014519,-0.00839881133288145,-0.00278939493000507
-0.0329315185546875,0.130378875732422,9.73455688476563,-0.000121972778288182,-0.00832823757082224,-0.000153930712258443
-0.0276924133300781,0.1293310546875,9.7332096862793,0.000221308684558608,-0.00949496775865555,-0.00366371078416705
-0.0302371215820313,0.127983856201172,9.73680221557617,0.0013438310706988,-0.00834394991397858,-0.00314226374030113
-0.029937744140625,0.136216735839844,9.72153396606445,-0.00144609645940363,-0.0100774010643363,-0.00572632905095816
-0.0211061096191406,0.131426696777344,9.72572525024414,0.00219684164039791,-0.0113458652049303,-0.00556094665080309
-0.0208067321777344,0.142353973388672,9.7332096862793,0.00376144866459072,-0.00889122951775789,-0.00330072175711393
-0.0246986389160156,0.126187591552734,9.73066497802734,0.000330764596583322,-0.00930561777204275,-0.00381391285918653
-0.0276924133300781,0.117954711914063,9.72826995849609,-0.00101812649518251,-0.0109322760254145,-0.00283972872421145
-0.0477507019042969,0.125888214111328,9.7427897644043,0.00269751576706767,-0.010438259691,-0.000627973407972604
-0.0459544372558594,0.127834167480469,9.7285693359375,-0.000501473201438785,-0.0110678309574723,-0.0023752732668072
-0.0372724914550781,0.133821716308594,9.72198303222656,0.00075553881470114,-0.0100044310092926,-0.000945954816415906
-0.0595761108398438,0.124990081787109,9.7239289855957,-0.00222933222539723,-0.0105964513495564,-0.00204983516596258
-0.0290396118164063,0.114661560058594,9.73036560058594,0.000482298462884501,-0.0100811300799251,-0.00330737978219986
-0.0260458374023438,0.126786346435547,9.72587493896484,0.00298859924077988,-0.00788215827196836,-0.00334519660100341
-0.0389190673828125,0.136965179443359,9.74323883056641,0.000675910268910229,-0.0117858191952109,-0.0025608956348151
-0.0181123352050781,0.133073272705078,9.74024505615234,-0.00178777996916324,-0.0092574143782258,-0.00447304546833038
-0.0164657592773438,0.124690704345703,9.72602462768555,0.00163837673608214,-0.00997060909867287,-0.00189404014963657
-0.0305364990234375,0.115110626220703,9.72632400512695,-0.00077631144085899,-0.00804354529827833,-0.00226395321078598
-0.0146694946289062,0.131426696777344,9.73216186523438,-0.000545149086974561,-0.00989657267928123,-0.00103543698787689
-0.0284408569335938,0.116757202148438,9.71210357666016,-0.00141413847450167,-0.0105826035141945,-0.0046898266300559
-0.0453556823730469,0.110619964599609,9.72153396606445,0.00127991521731019,-0.00819028541445732,-0.0018562232144177
-0.03592529296875,0.124840393066406,9.7478791809082,-0.00028948561521247,-0.0108595723286271,-0.00205169920809567
-0.0229023742675781,0.125888214111328,9.72602462768555,-0.000431432097684592,-0.00802943017333746,-0.00342775462195277
-0.0336799621582031,0.136815490722656,9.73575439453125,0.00189617066644132,-0.0104318680241704,-0.000548611162230372
-0.0143701171875,0.132474517822266,9.71599548339844,0.000995223294012249,-0.0086222505196929,-0.0019739349372685
-0.0422122192382813,0.133522338867188,9.74713073730469,-0.00135475001297891,-0.00967845972627401,0.000552872254047543
-0.0354762268066406,0.122894439697266,9.73635314941406,0.000753408239688724,-0.0103871272876859,-0.00361124635674059
-0.0211061096191406,0.120649108886719,9.73410781860352,0.000245277129579335,-0.00969044398516417,-0.000992826418951154
-0.0281414794921875,0.115410003662109,9.72318054199219,0.000812530459370464,-0.0122380238026381,-0.00351377460174263
-0.0378712463378906,0.122295684814453,9.73979598999023,-0.00106419913936406,-0.0110270846635103,-0.00182399898767471
-0.0164657592773438,0.118553466796875,9.7287190246582,0.000107591709820554,-0.0109967244789004,-0.00286955595947802
-0.0318836975097656,0.113913116455078,9.74189163208008,0.000705471378751099,-0.00975116435438395,-0.000799747242126614
-0.0233514404296875,0.119002532958984,9.72003707885742,0.00242001446895301,-0.0111961951479316,-0.000908137939404696
-0.0254470825195313,0.119451599121094,9.7382991027832,0.00187060434836894,-0.00865740422159433,-0.00151107762940228
-0.0326321411132812,0.125738525390625,9.72767120361328,0.000332628813339397,-0.00987233780324459,-0.00347116403281689
-0.0261955261230469,0.120798797607422,9.72183334350586,0.00201095291413367,-0.00867657922208309,-0.00154942716471851
-0.0326321411132812,0.123044128417969,9.73635314941406,-0.0010479538468644,-0.00955755263566971,-0.000147006488987245
-0.0308358764648438,0.119152221679688,9.73171279907227,-0.000178698101080954,-0.0108052436262369,-0.00130095414351672
-0.0353265380859375,0.1389111328125,9.72617431640625,3.46210936186253e-06,-0.00955755263566971,-0.00267274840734899
-0.0507444763183594,0.122445373535156,9.7335090637207,0.000943291641306132,-0.00911147333681583,-0.00108310754876584
-0.047900390625,0.116308135986328,9.71479797363281,0.00224504480138421,-0.0120582608506083,-0.00382030452601612
-0.0344284057617188,0.127684478759766,9.733359375,0.000627174449618906,-0.00982413440942764,-0.00313400803133845
-0.0214054870605469,0.114362182617188,9.72602462768555,0.00214171409606934,-0.0104182865470648,-0.00226049101911485
-0.0357756042480469,0.126187591552734,9.73859848022461,0.000274571910267696,-0.0117043266072869,-0.000218911838601343
-0.0305364990234375,0.123343505859375,9.72467742919922,-0.000861798936966807,-0.00885181501507759,-0.00298487092368305
-0.0197589111328125,0.135917358398437,9.73650283813477,-0.00237926817499101,-0.00832823757082224,-0.00226821424439549
-0.0353265380859375,0.121846618652344,9.73231155395508,-0.000626908091362566,-0.00937619153410196,-0.00126979523338377
-0.0411643981933594,0.125588836669922,9.72916809082031,-0.000728640879970044,-0.0089183934032917,-0.00241921562701464
-0.0285905456542969,0.135617980957031,9.73470657348633,-0.00141626910772175,-0.0102728772908449,-0.000450340536190197
-0.0240998840332031,0.128732299804688,9.73201217651367,-0.000944889558013529,-0.0122689167037606,-0.00322801759466529
-0.0320333862304688,0.12693603515625,9.72497680664063,0.000981374876573682,-0.0124105969443917,-0.00187380018178374
-0.0324824523925781,0.128881988525391,9.72497680664063,0.00180082954466343,-0.00979590509086847,-0.00434308312833309
-0.0297880554199219,0.120948486328125,9.71868988037109,0.00078030617441982,-0.0094158723950386,-0.0047758468426764
-0.0208067321777344,0.124690704345703,9.7287190246582,-0.00118057930376381,-0.0098206726834178,-0.000921187398489565
-0.0356259155273438,0.145198059082031,9.73755065917969,9.40095851547085e-05,-0.0104569019749761,-0.0030059099663049
-0.0236508178710938,0.126786346435547,9.73291030883789,0.00132359110284597,-0.0108984541147947,-0.0038599856197834
-0.0320333862304688,0.135767669677734,9.7236296081543,0.00104182865470648,-0.00850400608032942,-0.0035430695861578
-0.00718505859375,0.120649108886719,9.73006622314453,0.000572047021705657,-0.00824594590812922,-0.000900681072380394
-0.0178129577636719,0.105530548095703,9.72258178710937,-0.00115448026917875,-0.0106220180168748,-0.0045739789493382
-0.020357666015625,0.124690704345703,9.72677307128906,-0.0001142496112152,-0.010331466794014,-0.00312468688935041
-0.0450563049316406,0.113913116455078,9.74383758544922,0.00102292012888938,-0.0123876938596368,-0.00303973210975528
-0.0278421020507813,0.127983856201172,9.723779296875,0.000978179043158889,-0.00828802399337292,-0.000134489629999734
-0.04550537109375,0.137114868164063,9.72318054199219,-0.000628239708021283,-0.00753275118768215,-0.000727042963262647
-0.0345780944824219,0.129031677246094,9.73425750732422,-0.00131879735272378,-0.0117517309263349,-0.00532978447154164
-0.0374221801757812,0.126037902832031,9.72632400512695,-0.000963797967415303,-0.00986434891819954,-0.00394121184945107
-0.0305364990234375,0.124690704345703,9.71839050292969,-0.000197073924937285,-0.00869016069918871,-0.00102664856240153
-0.0342787170410156,0.126187591552734,9.72587493896484,0.00230629742145538,-0.0108057763427496,-0.000439954223111272
-0.0252973937988281,0.122595062255859,9.71854019165039,-0.00106792757287621,-0.00814820732921362,-0.00178751372732222
-0.0293389892578125,0.125738525390625,9.74189163208008,0.00152465968858451,-0.00993359088897705,-0.00250390404835343
-0.0303868103027344,0.134270782470703,9.723779296875,-0.000413855217630044,-0.0101064303889871,-0.00335691450163722
-0.0437091064453125,0.120649108886719,9.71704330444336,0.000137152790557593,-0.0100204097107053,-0.0029878003988415
-0.0473016357421875,0.118254089355469,9.73305999755859,0.00185808748938143,-0.0105405254289508,-0.00442324439063668
-0.0383203125,0.123044128417969,9.72931777954102,0.000645283900666982,-0.0107410615310073,-0.00225356686860323
-0.0468525695800781,0.120948486328125,9.7236296081543,0.00195689080283046,-0.0131043503060937,-0.00344426627270877
-0.0317340087890625,0.104033660888672,9.72422836303711,0.000198405497940257,-0.00926167517900467,-0.00212360452860594
-0.0296383666992188,0.132175140380859,9.73590408325195,-0.000895088422112167,-0.00846485700458288,-0.00435506738722324
-0.0285905456542969,0.138162689208984,9.7379997253418,-0.00070919981226325,-0.0131847774609923,-0.00318593950942159
-0.0452059936523438,0.106728057861328,9.72482711791992,0.00023515711654909,-0.0085117295384407,0.000360325706424192
-0.0496966552734375,0.124990081787109,9.73126373291016,-0.00136833218857646,-0.0111919343471527,-0.00266848737373948
-0.0384700012207031,0.136366424560547,9.75102264404297,-0.00152465968858451,-0.0103351958096027,-0.00351377460174263
-0.0348774719238281,0.122595062255859,9.72273147583008,0.00114249612670392,-0.0104366615414619,-0.00276010017842054
-0.0416134643554688,0.138013000488281,9.73889785766602,-0.000805073592346162,-0.00961267948150635,-0.00199550669640303
-0.0474513244628906,0.138312377929688,9.72901840209961,0.0027358653023839,-0.00939989369362593,-0.00110787502489984
-0.0498463439941406,0.132624206542969,9.72482711791992,-0.000588292255997658,-0.0119855562224984,-0.00169909675605595
-0.03113525390625,0.105530548095703,9.73740097045899,-0.00111959292553365,-0.011975702829659,-0.0045241778716445
-0.0380209350585938,0.115110626220703,9.73051528930664,0.000302535103401169,-0.0125845009461045,-0.000939030607696623
-0.0143701171875,0.132474517822266,9.7236296081543,0.000906273722648621,-0.0111748902127147,-0.00289698666892946
-0.022752685546875,0.106877746582031,9.74144256591797,0.00214757304638624,-0.0116870161145926,-0.000864994712173939
-0.0378712463378906,0.103285217285156,9.73081466674805,0.00214650784619153,-0.0103477127850056,-0.00332522299140692
-0.0276924133300781,0.131426696777344,9.73844879150391,-0.0013603427214548,-0.0101794004440308,-0.00264824740588665
-0.0356259155273438,0.126337280273438,9.72273147583008,-0.000164583354489878,-0.0106252133846283,-0.00373961078003049
-0.0317340087890625,0.122595062255859,9.71449859619141,0.00121786352247,-0.00902705080807209,-0.00344639667309821
-0.0233514404296875,0.122295684814453,9.73096435546875,0.000591488089412451,-0.00595615990459919,-0.0021395836956799
-0.0217048645019531,0.122595062255859,9.7335090637207,0.00279552023857832,-0.00710451463237405,-0.0027688886038959
-0.034727783203125,0.115559692382813,9.73425750732422,0.00112172344233841,-0.00783874839544296,-0.00214650784619153
-0.044307861328125,0.138162689208984,9.75311828613281,0.00111639709211886,-0.00614923890680075,-0.00352948741056025
-0.0317340087890625,0.136067047119141,9.73964630126953,0.00116939400322735,-0.01061109919101,-0.00137152790557593
-0.0282911682128906,0.125888214111328,9.74219100952148,-9.61401165113784e-05,-0.00777083775028586,-0.00127805094234645
-0.0342787170410156,0.111069030761719,9.73919723510742,-0.000643153383862227,-0.0110172312706709,-0.000746217730920762
-0.0344284057617188,0.118104400634766,9.7191389465332,-0.00178618216887116,-0.0112499911338091,-0.00401365011930466
-0.0434097290039063,0.117056579589844,9.73530532836914,0.00221335305832326,-0.0101908519864082,-0.00476732477545738
-0.0284408569335938,0.133971405029297,9.73725128173828,0.00163198506925255,-0.00514762382954359,-0.00271589169278741
-0.0377215576171875,0.137264556884766,9.73425750732422,0.00166873668786138,-0.00851492490619421,-0.0037843519821763
-0.0365240478515625,0.119900665283203,9.7335090637207,0.00222001108340919,-0.00971654336899519,-0.00321896281093359
-0.04071533203125,0.115110626220703,9.73844879150391,0.00261708837933838,-0.00944170448929071,-0.00202506757341325
-0.020357666015625,0.111069030761719,9.71180419921875,0.000749413506127894,-0.0100901843979955,-0.000959536933805794
-0.0217048645019531,0.119451599121094,9.73410781860352,0.000266582414042205,-0.0103804692625999,-0.00189244223292917
-0.0208067321777344,0.111218719482422,9.73949661254883,-0.0005877596559003,-0.0101493066176772,0.000318514066748321
-0.0267942810058594,0.115709381103516,9.72482711791992,0.00230336794629693,-0.0108278803527355,-0.000863396795466542
-0.0261955261230469,0.1293310546875,9.74054443359375,0.00200163177214563,-0.0118433432653546,-0.00178698112722486
-0.0294886779785156,0.151934051513672,9.74817855834961,0.0011515507940203,-0.0107168266549706,-0.00190682336688042
-0.0577798461914063,0.123044128417969,9.71719299316406,0.00477558048442006,-0.00645204028114676,-0.00224877311848104
-0.0254470825195313,0.128283233642578,9.73904754638672,0.000924649531953037,-0.0129786487668753,-0.00293134129606187
-0.0341290283203125,0.138312377929688,9.72722213745117,-0.000420246826251969,-0.011387144215405,0.000307595095364377
-0.0221539306640625,0.143701171875,9.72527618408203,0.00040293627534993,-0.0110084423795342,-0.0023086944129318
-0.0252973937988281,0.129480743408203,9.72991653442383,0.00126766471657902,-0.0091170659288764,-0.0018951054662466
-0.0270936584472656,0.114362182617188,9.72647369384766,0.00120508042164147,-0.0112300179898739,-0.00416118931025267
-0.0172142028808594,0.114212493896484,9.74264007568359,0.00181814003735781,-0.0100907171145082,-0.00244744494557381
-0.0309855651855469,0.122744750976563,9.72078552246094,-0.00212333840318024,-0.0107626328244805,-0.00121014041360468
-0.0294886779785156,0.12693603515625,9.73904754638672,0.00134329847060144,-0.00644005602225661,-0.000663393409922719
-0.0465531921386719,0.120349731445313,9.73231155395508,0.00271695689298213,-0.0105794072151184,-0.00201228447258472
-0.0318836975097656,0.114362182617188,9.72722213745117,-0.00317262369208038,-0.010913367383182,-0.00337582291103899
-0.0149688720703125,0.138162689208984,9.74249038696289,-0.000349140405887738,-0.00890214834362268,-0.00164609984494746
-0.0480500793457031,0.130378875732422,9.70431976318359,0.0015180017799139,-0.0108510497957468,-0.00180615589488298
-0.028740234375,0.139659576416016,9.72303085327149,0.00154250289779156,-0.00762729346752167,-0.00332362507469952
-0.0414637756347656,0.148640899658203,9.74219100952148,0.000547279603779316,-0.011949603445828,-0.00241548707708716
-0.0312849426269531,0.141455841064453,9.73994567871094,-0.000464188982732594,-0.00914023537188768,-0.00428209686651826
-0.0248483276367188,0.126486968994141,9.72826995849609,-0.00261469162069261,-0.00851545762270689,-0.000660730234812945
-0.0266445922851563,0.120050354003906,9.73111404418945,-0.000456199486507103,-0.0118878185749054,-0.00366317806765437
-0.0314346313476562,0.123792572021484,9.73066497802734,-0.00325092067942023,-0.00853463262319565,-0.00345811457373202
-0.0296383666992188,0.125289459228516,9.73111404418945,0.000612260715570301,-0.0092670014128089,-0.00226581748574972
-0.0249980163574219,0.118703155517578,9.71749237060547,0.0022996396292001,-0.010831075720489,-0.000570449104998261
-0.0326321411132812,0.126337280273438,9.71958801269531,-0.000841558910906315,-0.0091410344466567,-0.00272361491806805
-0.0339793395996094,0.121397552490234,9.7332096862793,0.00259152194485068,-0.0102124242112041,-0.00116167089436203
-0.0252973937988281,0.130229187011719,9.74488540649414,0.00209484249353409,-0.010537595488131,-0.00362349697388709
-0.0200582885742187,0.133073272705078,9.73485626220703,0.00325331767089665,-0.00987500138580799,-0.00165701878722757
-0.0363743591308594,0.130079498291016,9.72033645629883,-0.000442084739916027,-0.0122819663956761,-0.00231934688054025
-0.0264949035644531,0.120050354003906,9.72812026977539,0.00122052675578743,-0.0111887389793992,-0.00286050140857697
-0.0249980163574219,0.128732299804688,9.73021591186524,0.000997353810817003,-0.00908457487821579,-0.00274172425270081
-0.0519419860839844,0.120948486328125,9.71375015258789,8.65527326823212e-05,-0.0100036319345236,-0.00187513174023479
-0.0336799621582031,0.131875762939453,9.71928863525391,0.00262614316307008,-0.0105421226471663,-0.00115048559382558
-0.0368234252929688,0.135468292236328,9.73246124267578,0.000133424371597357,-0.00996794551610947,-0.00105274759698659
-0.0270936584472656,0.117206268310547,9.73305999755859,-0.00135554897133261,-0.0111423991620541,-0.000870853662490845
-0.0121247863769531,0.129630432128906,9.73560470581055,0.000417317351093516,-0.0103698167949915,-0.00441791769117117
-0.0417631530761719,0.132025451660156,9.72123458862305,0.000888696871697903,-0.00949576683342457,-0.00481499498710036
-0.0389190673828125,0.123942260742188,9.73934692382813,0.00557825714349747,-0.00867578014731407,-0.00178804632741958
-0.032332763671875,0.112116851806641,9.73216186523438,0.00253293244168162,-0.00970775447785854,-0.00396651215851307
-0.0282911682128906,0.132025451660156,9.72512649536133,0.00152572500519454,-0.00963531713932753,-0.00289805186912417
-0.0336799621582031,0.121098175048828,9.73934692382813,0.00100747379474342,-0.0120486728847027,-0.00338141550309956
-0.0269439697265625,0.123343505859375,9.73201217651367,0.00105487811379135,-0.00992187298834324,5.13990089530125e-05
-0.0363743591308594,0.139060821533203,9.73425750732422,-0.000118776981253177,-0.0121938157826662,-0.00370365800336003
-0.0281414794921875,0.121696929931641,9.73620346069336,0.00338860624469817,-0.00897352118045092,-0.00470900163054466
-0.0339793395996094,0.121098175048828,9.71659423828125,0.00109722232446074,-0.0103927198797464,-0.00213718670420349
-0.0401165771484375,0.137414245605469,9.72452774047852,0.000197073924937285,-0.00851572398096323,-0.00312814908102155
-0.0279917907714844,0.143701171875,9.72961715698242,-0.000820253626443446,-0.0129131358116865,-0.00141440483275801
-0.0175135803222656,0.116457824707031,9.73590408325195,-0.00158165139146149,-0.00965076312422752,-0.00174064212478697
-0.0326321411132812,0.120349731445313,9.72812026977539,-3.27568814100232e-05,-0.012056396342814,-0.00289112771861255
-0.0270936584472656,0.1293310546875,9.73246124267578,0.000361657264875248,-0.0074967984110117,-0.00251961662434042
-0.0350271606445312,0.130229187011719,9.72647369384766,0.000624511274509132,-0.01065344363451,-0.00434867572039366
-0.0389190673828125,0.126636657714844,9.72303085327149,0.000746217730920762,-0.0102614257484674,-0.0033832797780633
-0.0333805847167969,0.121846618652344,9.74249038696289,0.00250310497358441,-0.0102758072316647,-0.00360299064777792
-0.029937744140625,0.1197509765625,9.7239289855957,-0.00141813326627016,-0.00934716314077377,-0.00421605026349425
-0.0270936584472656,0.124391326904297,9.72228240966797,0.000584830180741847,-0.0102550340816379,-0.00343734188936651
-0.0353265380859375,0.112416229248047,9.72916809082031,0.00218432466499507,-0.0108417291194201,-0.0023750071413815
-0.0332308959960938,0.123343505859375,9.71973770141602,0.00113956665154546,-0.0108803445473313,-0.00193931383546442
-0.0232017517089844,0.131127319335938,9.72976684570312,-0.00125062046572566,-0.0093285208567977,-0.00205942243337631
-0.0278421020507813,0.116158447265625,9.73096435546875,-0.00149243546184152,-0.00704299565404654,-0.00336197461001575
-0.0172142028808594,0.122595062255859,9.72228240966797,0.000174969682120718,-0.00769893219694495,-0.000284159294096753
-0.025147705078125,0.136665802001953,9.72617431640625,0.00101945805363357,-0.010235327295959,-0.00229271547868848
-0.0543370056152344,0.131875762939453,9.75042388916016,0.00160535343457013,-0.00969603657722473,-0.00176727364305407
-0.0413140869140625,0.143102416992188,9.73635314941406,0.0021728731226176,-0.00752822356298566,-0.00128976895939559
-0.0360749816894531,0.1389111328125,9.72482711791992,0.00294492347165942,-0.0121959457173944,-0.00347755569964647
-0.0188607788085938,0.126636657714844,9.723779296875,-0.000336090917699039,-0.00980016682296991,-0.000730771396774799
-0.0350271606445312,0.119601287841797,9.73695190429688,0.00108736869879067,-0.0120236398652196,-0.00246342387981713
-0.0220042419433594,0.107177124023438,9.72213272094727,0.001594168250449,-0.00950135942548513,-0.00326743233017623
-0.0124241638183594,0.118553466796875,9.72752151489258,-0.00145222176797688,-0.00950775109231472,-0.00209351093508303
-0.0235011291503906,0.121547241210938,9.73455688476563,-0.00124396255705506,-0.0105631621554494,-0.00186154956463724
-0.0285905456542969,0.126037902832031,9.72407867431641,0.00148497859481722,-0.00961534306406975,-0.00199310970492661
-0.0508941650390625,0.129480743408203,9.73515563964844,0.00112891395110637,-0.00877112057060003,-0.000362988852430135
-0.04071533203125,0.132324829101563,9.73470657348633,-0.00167379667982459,-0.00982733070850372,-0.000580036488827318
-0.0434097290039063,0.127385101318359,9.7239289855957,0.00134995637927204,-0.00816258881241083,-0.0022572954185307
-0.0329315185546875,0.132923583984375,9.71988739013672,-0.000343547784723341,-0.00980922114104033,-0.00222107628360391
-0.0389190673828125,0.125289459228516,9.73755065917969,0.0011060107499361,-0.00823848880827427,-0.00206128670834005
-0.0296383666992188,0.132025451660156,9.73380844116211,-0.00163464830256999,-0.00918071530759335,-0.00149137014523149
-0.04071533203125,0.141006774902344,9.73066497802734,0.00155315548181534,-0.0120918164029717,-0.00375212752260268
-0.0363743591308594,0.132025451660156,9.73725128173828,0.000937698991037905,-0.0133331157267094,-0.00174117472488433
-0.0327818298339844,0.122595062255859,9.7335090637207,0.000879375787917525,-0.0102302664890885,-0.0031220237724483
-0.0266445922851563,0.136965179443359,9.73755065917969,-0.00218752049840987,-0.0105980494990945,-0.00372629496268928
-0.034727783203125,0.119900665283203,9.73470657348633,-0.0025020397733897,-0.0117605188861489,-0.00449994346126914
-0.0336799621582031,0.128732299804688,9.73680221557617,-0.000210922356927767,-0.0104656899347901,-0.00468689715489745
-0.0353265380859375,0.130229187011719,9.73695190429688,-6.20516511844471e-05,-0.00887365266680717,-0.00177393155172467
-0.0429606628417969,0.134420471191406,9.73261093139648,-0.00026871295995079,-0.00931600388139486,-0.000801078858785331
-0.0332308959960938,0.129181365966797,9.73590408325195,0.000747815647628158,-0.00976527854800224,-0.0030226877424866
-0.0345780944824219,0.128283233642578,9.74159225463867,0.00134249951224774,-0.00915621407330036,0.00018056231783703
-0.0372724914550781,0.107326812744141,9.73036560058594,-0.000439421564806253,-0.0105162905529141,-0.000919589539989829
-0.0486488342285156,0.113464050292969,9.72722213745117,-9.32106377149466e-06,-0.00886965822428465,-0.00337768718600273
-0.0378712463378906,0.124241638183594,9.73635314941406,0.000692155561409891,-0.0082328962162137,-0.0037105823867023
-0.0308358764648438,0.121397552490234,9.72078552246094,0.00358301680535078,-0.0109945945441723,-0.000271908735157922
-0.0484991455078125,0.121547241210938,9.72647369384766,-0.000257261359365657,-0.00855220947414637,-0.00225117010995746
-0.0399668884277344,0.131277008056641,9.72078552246094,0.00345731573179364,-0.0105735482648015,-0.00304745510220528
-0.0305364990234375,0.146245880126953,9.72183334350586,0.000538491178303957,-0.0104507766664028,-0.00654125632718205
-0.0428109741210938,0.148042144775391,9.72198303222656,-0.000216248678043485,-0.00925847981125116,-0.00327994907274842
-0.0194595336914062,0.134420471191406,9.73934692382813,0.000846885202918202,-0.00841239280998707,-0.00314705749042332
-0.029937744140625,0.121397552490234,9.73126373291016,0.00221335305832326,-0.0116659766063094,-0.00369833176955581
-0.0267942810058594,0.11735595703125,9.73036560058594,0.00130201946012676,-0.0115855494514108,-0.00133770576212555
-0.032332763671875,0.117056579589844,9.72991653442383,0.00157978711649776,-0.0106651615351439,-0.00545069156214595
-0.0248483276367188,0.131127319335938,9.74323883056641,6.73779723001644e-05,-0.0100965760648251,-0.00221308693289757
-0.0243992614746094,0.133073272705078,9.74383758544922,0.0014764565275982,-0.010153035633266,-0.00330631458200514
-0.0294886779785156,0.127534790039063,9.74144256591797,0.000621848099399358,-0.00711916200816631,-0.000929176923818886
-0.0368234252929688,0.135468292236328,9.73994567871094,-0.0012327772565186,-0.00892505142837763,-0.0019299928098917
-0.0401165771484375,0.132025451660156,9.74084381103516,0.000289219286059961,-0.0112031195312738,-0.00280697178095579
-0.0402662658691406,0.132923583984375,9.72931777954102,0.000535561703145504,-0.0111365402117372,-0.00322828395292163
-0.041912841796875,0.12693603515625,9.73365875244141,0.00235077226534486,-0.0107301427051425,-0.00155741663184017
-0.0124241638183594,0.121547241210938,9.7381494140625,0.000170442304806784,-0.009718406945467,-0.00164743140339851
-0.025147705078125,0.118104400634766,9.74967544555664,0.000918257923331112,-0.0123690515756607,-0.00455054314807057
-0.0398171997070313,0.124541015625,9.73545501708984,-0.00149350077845156,-0.0108941933140159,-0.0027539748698473
-0.0330812072753906,0.124840393066406,9.71704330444336,-0.000936900090891868,-0.00977353472262621,-0.00174570211675018
-0.028740234375,0.128881988525391,9.7332096862793,-0.00240643229335546,-0.0107423923909664,-0.0027193536516279
-0.0296383666992188,0.12693603515625,9.74219100952148,0.00322189228609204,-0.0101501056924462,-0.00200456124730408
-0.0172142028808594,0.113164672851563,9.73530532836914,0.00018482338055037,-0.0105929896235466,-0.00334785971790552
-0.0339793395996094,0.128732299804688,9.71494766235352,-0.00149003858678043,-0.0092683332040906,0.000410126813221723
-0.0276924133300781,0.124690704345703,9.72826995849609,0.000250603450695053,-0.00823582522571087,0.000502804818097502
-0.0375718688964844,0.122894439697266,9.73231155395508,0.000143810699228197,-0.011533884331584,-0.00343867368064821
-0.027542724609375,0.134570159912109,9.72587493896484,0.000417051021941006,-0.00852025113999844,-0.00130361737683415
-0.0315843200683594,0.127235412597656,9.72707244873047,0.000767256715334952,-0.00901693105697632,-0.00274571916088462
-0.0335302734375,0.137264556884766,9.74997482299805,-0.0016796556301415,-0.00943105202168226,-0.000648746034130454
-0.0154179382324219,0.119002532958984,9.7382991027832,-0.000255397142609581,-0.0108659630641341,-0.00315611227415502
-0.0374221801757812,0.123044128417969,9.73410781860352,0.000244744500378147,-0.00842331256717443,0.000188019170309417
-0.0392184448242188,0.130378875732422,9.74144256591797,0.000510794285219163,-0.00978551898151636,-0.00369753292761743
-0.0146694946289062,0.135019226074219,9.72722213745117,0.00199896865524352,-0.0123698506504297,-0.00263013783842325
-0.0351768493652344,0.132923583984375,9.73066497802734,-0.00152998603880405,-0.0118830250576138,-0.00458809407427907
-0.0353265380859375,0.115859069824219,9.73365875244141,0.00123144569806755,-0.00930615048855543,-0.00258672842755914
-0.0290396118164063,0.106129302978516,9.72033645629883,-0.00030626353691332,-0.0125245805829763,-0.0033393376506865
-0.0441581726074219,0.118703155517578,9.72647369384766,0.000843955727759749,-0.00982812978327274,-0.003425357863307
-0.0294886779785156,0.110919342041016,9.73485626220703,0.000933970615733415,-0.00836072769016027,-0.00294625503011048
-0.0242495727539063,0.125139770507812,9.73500595092773,-0.00141467119101435,-0.00865527335554361,0.00118404137901962
-0.0306861877441406,0.1197509765625,9.73695190429688,0.00100427807774395,-0.010961570776999,-0.00101146858651191
-0.03592529296875,0.120798797607422,9.74039474487305,0.00127299095038325,-0.0121458787471056,0.000198671812540852
-0.0309855651855469,0.113464050292969,9.73291030883789,-0.000947286374866962,-0.00751810381188989,-0.00303067732602358
-0.034727783203125,0.117655334472656,9.73141342163086,0.00429834192618728,-0.0109189599752426,-0.00277767702937126
-0.0278421020507813,0.137563934326172,9.72063583374024,-0.000447943690232933,-0.00934609770774841,-0.00307941320352256
-0.044307861328125,0.126786346435547,9.74174194335938,0.00184610323049128,-0.0104731470346451,-0.00165089359506965
-0.0303868103027344,0.131426696777344,9.72018676757813,-0.000459661590866745,-0.0101077612489462,-0.00423336075618863
-0.0116757202148438,0.138611755371094,9.72228240966797,-0.00247167982161045,-0.00830560084432364,-0.00136620167177171
-0.0300874328613281,0.123193817138672,9.72707244873047,0.00189217599108815,-0.0109285479411483,-0.00398701848462224
-0.0267942810058594,0.126786346435547,9.73485626220703,-0.00269938004203141,-0.0101458448916674,-0.0012948289513588
-0.0317340087890625,0.1197509765625,9.74817855834961,-0.00164743140339851,-0.0101988418027759,-0.00261762109585106
-0.015567626953125,0.121846618652344,9.72946746826172,-0.000632234441582114,-0.00965688843280077,-0.00234784279018641
-0.0381706237792969,0.124391326904297,9.73186248779297,0.00189563806634396,-0.00738201616331935,-0.00241841655224562
-0.0318836975097656,0.124241638183594,9.72198303222656,0.0016207997687161,-0.013618340715766,-0.00376011710613966
-0.0320333862304688,0.109272766113281,9.71973770141602,0.00168365042190999,-0.0109549127519131,-0.00266582425683737
-0.0235011291503906,0.129780120849609,9.72123458862305,0.00136540271341801,-0.0120121883228421,-0.00229564495384693
-0.0392184448242188,0.137563934326172,9.72767120361328,0.00125914253294468,-0.00989896990358829,-0.000948085333220661
-0.0308358764648438,0.132773895263672,9.73755065917969,-0.0020311928819865,-0.0128771830350161,-0.00257527665235102
-0.0526904296875,0.133971405029297,9.72946746826172,-0.000789627258200198,-0.0109791476279497,-0.00227487226948142
-0.0516426086425781,0.126037902832031,9.73665252685547,-0.00243945559486747,-0.0112073803320527,-0.00185515801422298
-0.0137713623046875,0.134869537353516,9.70851104736328,0.000133957000798546,-0.0113285547122359,-0.00304585741832852
-0.0252973937988281,0.138162689208984,9.73874816894531,-0.000958471675403416,-0.010194581001997,-0.0035928706638515
-0.0200582885742187,0.120050354003906,9.72452774047852,0.00139762694016099,-0.0111405355855823,-0.00266395998187363
-0.0196092224121094,0.123792572021484,9.72647369384766,0.000225037103518844,-0.0120944799855351,-0.00249218614771962
-0.0332308959960938,0.108524322509766,9.73889785766602,0.00110334763303399,-0.00986328348517418,-0.00228339433670044
-0.0254470825195313,0.122295684814453,9.73246124267578,0.000925182132050395,-0.0102475779131055,-0.000641022867057472
-0.0232017517089844,0.139958953857422,9.72692276000977,0.00126659939996898,-0.00908191222697496,-0.000249538192292675
-0.0499960327148437,0.136965179443359,9.74802886962891,0.00305304792709649,-0.0128329740837216,-0.00507252290844917
-0.027542724609375,0.127983856201172,9.71539672851562,0.00129589415155351,-0.00937485974282026,-0.00372389820404351
-0.0306861877441406,0.124690704345703,9.72243209838867,0.000181094947038218,-0.0100118881091475,-0.00171880412381142
-0.0273930358886719,0.132474517822266,9.72662338256836,-0.00103144231252372,-0.0121195130050182,-0.00274252332746983
-0.0326321411132812,0.114661560058594,9.73605377197266,-0.000202400246053003,-0.0120747722685337,-0.00231109117157757
-0.0330812072753906,0.119900665283203,9.72886871337891,0.000534230086486787,-0.00820040516555309,-0.00256515666842461
-0.0266445922851563,0.127834167480469,9.73246124267578,-0.00323467538692057,-0.0133104790002108,-0.000674578710459173
-0.0401165771484375,0.124091949462891,9.72078552246094,-0.000212520259083249,-0.00763102155178785,-0.00365465600043535
-0.0266445922851563,0.104333038330078,9.73365875244141,0.000648213375825435,-0.00811491813510656,-0.00177180103491992
-0.0368234252929688,0.123193817138672,9.72138427734375,0.00054142065346241,-0.00733727496117353,-0.00275663798674941
-0.0288899230957031,0.126037902832031,9.7477294921875,0.00263360003009439,-0.00934716314077377,-0.00304985209368169
-0.0470022583007813,0.13651611328125,9.73365875244141,0.0024173513520509,-0.0117541281506419,-0.00300298049114645
-0.0390687561035156,0.112266540527344,9.73261093139648,-0.00298087624832988,-0.0118848886340857,-0.00164237141143531
-0.0260458374023438,0.125289459228516,9.71225326538086,-0.00200136564671993,-0.00601448304951191,-0.00474095949903131
-0.0100291442871094,0.135617980957031,9.72273147583008,-0.000253799255006015,-0.00841345824301243,-0.0016953683225438
-0.0312849426269531,0.126786346435547,9.72572525024414,0.00145009125117213,-0.00967473164200783,-0.00161973456852138
-0.0378712463378906,0.128432922363281,9.72707244873047,0.0023161512799561,-0.01114905718714,-0.00445493590086699
-0.02634521484375,0.130229187011719,9.73231155395508,0.00049934268463403,-0.00981028657406569,-0.00204956880770624
-0.0270936584472656,0.111967163085938,9.73919723510742,4.26105762016959e-05,-0.0107804760336876,-0.000759000889956951
-0.03113525390625,0.137264556884766,9.74653198242188,-0.00141946482472122,-0.0107344035059214,-0.00254491670057178
-0.04071533203125,0.118104400634766,9.70087692260742,-0.00168391678016633,-0.0121357589960098,-0.00307515216991305
-0.0294886779785156,0.148042144775391,9.74952575683594,2.74305584753165e-05,-0.0109157646074891,0.000345412001479417
