AccX,AccY,AccZ,GyroX,GyroY,GyroZ
9.97091537475586,13.9632632446289,20.9984834289551,-0.243044346570969,2.87644863128662,1.19247889518738
12.1934934997559,12.9384942626953,23.461611328125,0.607369840145111,1.14502394199371,1.2882639169693
17.1682484436035,10.9569149780273,26.4398181152344,1.64793872833252,-0.344857513904572,1.17077171802521
22.0826788330078,8.77984222412109,30.0961148071289,2.63239026069641,-0.867708206176758,0.940078020095825
25.0319956970215,6.39305557250977,32.6442658996582,3.27919054031372,-0.310287564992905,0.736951291561127
25.6133866882324,4.7276188659668,31.4638206481934,3.53660154342651,0.669551730155945,0.513328015804291
24.8619493103027,3.57950637817383,26.546396484375,3.52951836585999,1.47590303421021,0.251670062541962
22.1126165771484,2.50968109130859,20.1799855041504,3.42032837867737,1.93302035331726,0.0971824750304222
17.2231842041016,1.08135131835938,14.3850860595703,3.25548815727234,2.01063776016235,0.153457462787628
11.9495008850098,-0.23231689453125,9.10810958862305,2.97474718093872,1.85454308986664,0.401156216859818
7.51152969360352,-1.03330123901367,4.54544769287109,2.56542205810547,1.51299405097961,0.793364465236664
4.40953033447266,-1.3362712097168,1.10590026855469,2.16837477684021,1.01851499080658,1.21233403682709
2.93898834228516,-1.07955505371094,-0.603694610595703,1.89562046527863,0.514861226081848,1.50671637058258
3.15454010009766,-0.545316009521484,-0.60593994140625,1.7605459690094,0.196106389164925,1.62275373935699
4.23364608764648,-0.130079498291016,0.346828765869141,1.72773420810699,0.140729680657387,1.59577298164368
5.01921249389649,-0.180225219726562,1.28343109130859,1.77693271636963,0.202212482690811,1.5076732635498
5.15827331542969,-0.580043792724609,1.32444580078125,1.89411234855652,0.252286851406097,1.41167509555817
4.62208831787109,-1.21741836547852,0.774489440917969,2.03877735137939,0.259318113327026,1.34019720554352
3.82334930419922,-1.90583679199219,-0.101788330078125,2.19802498817444,0.206314817070961,1.27555799484253
3.02910095214844,-2.35011291503906,-1.12476104736328,2.34821105003357,0.107303023338318,1.1963495016098
2.28395050048828,-2.37196746826172,-2.24577987670898,2.39467072486877,0.0244765803217888,1.12168908119202
1.57412658691406,-2.1601579284668,-3.57576416015625,2.24878144264221,0.0542168989777565,1.05669546127319
1.15469879150391,-1.98532150268555,-5.01112930297852,1.94268870353699,0.129661858081818,0.973127841949463
1.05036575317383,-1.82560363769531,-6.2607307434082,1.51777327060699,0.212235301733017,0.894476175308228
1.00770446777344,-1.65974853515625,-7.17847229003906,1.01131415367126,0.267542749643326,0.801645278930664
1.31965576171875,-1.69193161010742,-7.74758880615234,0.516994953155518,0.254601120948792,0.665907204151154
1.87350402832031,-1.79027709960938,-7.71645355224609,0.123504623770714,0.102103196084499,0.461710095405579
2.55114486694336,-1.79940811157227,-7.27876373291016,-0.104274205863476,-0.220429316163063,0.195439264178276
3.17250274658203,-1.95089309692383,-6.77521087646484,-0.205361410975456,-0.704296886920929,-0.098121240735054
3.5973193359375,-2.34008377075195,-6.53421203613281,-0.248761609196663,-1.30227220058441,-0.359035402536392
3.70374801635742,-2.91159530639648,-6.52059036254883,-0.347037583589554,-1.92783463001251,-0.520556926727295
3.58519454956055,-3.49163909912109,-6.60785888671875,-0.545383453369141,-2.46112966537476,-0.597206652164459
3.80119537353516,-3.95552444458008,-6.27899276733398,-0.824209988117218,-2.80895519256592,-0.606736540794373
4.33303939819336,-4.26088943481445,-5.41424102783203,-1.14307856559753,-2.96564674377441,-0.552914559841156
4.93493774414063,-4.59394683837891,-4.32959655761719,-1.43789184093475,-2.9671745300293,-0.463198810815811
5.66092803955078,-4.75411376953125,-2.71535339355469,-1.65430235862732,-2.7964653968811,-0.347059965133667
6.42942993164062,-4.49949325561523,-0.799637145996094,-1.83092033863068,-2.57112407684326,-0.244470462203026
7.95879959106445,-3.58519454956055,0.620010681152344,-1.94358003139496,-2.41760540008545,-0.214599654078484
10.195747833252,-1.49254623413086,1.80928756713867,-2.01399517059326,-2.59549069404602,-0.191210702061653
13.468092956543,0.856069793701172,2.50698669433594,-2.05918622016907,-2.96624565124512,-0.106299541890621
16.9863766479492,2.7780729675293,4.51536026000977,-2.04006814956665,-3.17855334281921,-0.00974104460328817
20.07984375,4.53796325683594,7.8125537109375,-2.03424072265625,-3.04650497436523,0.147302627563477
21.9663706970215,5.93216400146484,10.6714585876465,-2.19292378425598,-2.74331641197205,0.551690340042114
22.0439094543457,7.66705627441406,12.548405456543,-2.39858055114746,-2.48933291435242,1.17087185382843
23.130350189209,8.83387985229492,14.7732289123535,-2.38008999824524,-2.26960682868958,1.74971067905426
27.0342320251465,9.5514875793457,18.4142573547363,-1.94535422325134,-2.03334808349609,1.96618092060089
32.4071589660645,11.2976065063477,22.4998612976074,-1.03541195392609,-1.58123862743378,1.63466775417328
35.9401121520996,13.3196017456055,25.9407559204102,0.191636279225349,-0.913397669792175,0.896845579147339
35.115027923584,14.0678956604004,26.0076667785645,1.30440855026245,-0.286442935466766,0.114736169576645
30.0863850402832,13.3097222900391,20.8383164978027,1.90372848510742,0.0302788093686104,-0.362061262130737
22.6797871398926,11.5014825439453,12.0316799926758,1.88092195987701,0.00769120920449495,-0.456383526325226
15.038177947998,10.0216598510742,3.58654174804688,1.35210263729095,-0.199181005358696,-0.30672824382782
9.19867126464844,9.37650146484375,-2.35729797363281,0.572022497653961,-0.478104263544083,-0.110255666077137
5.69191360473633,8.89076156616211,-5.11800704956055,-0.205549165606499,-0.701445460319519,0.0141792017966509
3.67710342407227,8.59452758789063,-5.04915023803711,-0.882243990898132,-0.73398369550705,0.0361896939575672
2.27631637573242,8.34334991455078,-3.52606750488281,-1.4829216003418,-0.535641610622406,-0.00660756882280111
1.13179641723633,7.80746429443359,-1.96541290283203,-1.94879770278931,-0.339827597141266,-0.0897479951381683
0.1197509765625,7.13446380615234,-0.949176177978516,-2.2262876033783,-0.257224082946777,-0.179674416780472
-1.10769653320312,6.3658122253418,0.02155517578125,-2.29796862602234,-0.287220060825348,-0.271187841892242
-2.24413330078125,5.56931854248047,0.983155517578125,-2.20152974128723,-0.37277090549469,-0.361384302377701
-3.13358367919922,4.81563583374023,1.78773239135742,-1.98510217666626,-0.454050064086914,-0.456004023551941
-3.75194778442383,4.16793273925781,2.33574279785156,-1.72976386547089,-0.505993127822876,-0.539114058017731
-4.10446472167969,3.61558135986328,2.40789276123047,-1.50001347064972,-0.501042068004608,-0.608787715435028
-4.27436141967773,3.23207885742188,2.1412971496582,-1.33612465858459,-0.390336841344833,-0.665862143039703
-4.41551788330078,3.01083892822266,1.79671371459961,-1.24030256271362,-0.199824690818787,-0.726507961750031
-4.42195449829102,2.89363265991211,1.37324432373047,-1.18768703937531,0.0385399349033833,-0.804159879684448
-4.44096496582031,2.88749542236328,0.855471038818359,-1.18407022953033,0.281169354915619,-0.868651509284973
-4.69573516845703,2.91653503417969,0.282312927246094,-1.19730532169342,0.479568183422089,-0.890996754169464
-4.91083786010742,2.80381942749023,-0.118852844238281,-1.18323814868927,0.585501849651337,-0.894203722476959
-4.68346069335938,2.6921516418457,-0.0708027648925781,-1.08733081817627,0.604354858398438,-0.887580692768097
-4.00312545776367,2.64230529785156,0.631686401367188,-0.87640768289566,0.600381672382355,-0.903781235218048
-2.86070114135742,2.80052627563477,2.02918029785156,-0.56094217300415,0.622323751449585,-0.883052289485931
-1.90119644165039,2.86010238647461,3.61109069824219,-0.117710389196873,0.591507494449615,-0.777346909046173
-0.738713836669922,2.84932479858398,5.34523452758789,0.435655057430267,0.422507852315903,-0.635718405246735
1.31845825195313,3.51858306884766,7.16170715332031,1.11035895347595,0.330670595169067,-0.550064206123352
4.67118621826172,5.01547027587891,9.64010330200195,1.81161987781525,0.454804003238678,-0.575895249843597
7.93200531005859,7.33893859863281,11.8974092102051,2.32706952095032,0.761335968971252,-0.68113249540329
10.4900358581543,10.0483044433594,12.3636895751953,2.52288126945496,1.12024533748627,-0.8459432721138
11.5502810668945,12.616962890625,11.2500054931641,2.3252694606781,1.37958991527557,-0.791797995567322
10.3385508728027,14.6510829162598,9.51421508789062,1.78643989562988,1.36882853507996,-0.235608801245689
9.38518341064453,15.7825799560547,8.77265716552734,1.30072569847107,0.875641763210297,0.653396964073181
13.0350434875488,15.9761274719238,10.3966300964355,1.1750625371933,0.0753743797540665,1.29032897949219
22.6550885009766,16.0940821838379,14.3064994812012,1.44845390319824,-0.387237727642059,1.25154113769531
33.4347720336914,16.8092948913574,19.7536720275879,1.93378174304962,-0.120793797075748,0.682421684265137
39.044356842041,16.6268243408203,23.253394317627,2.30191683769226,0.686853229999542,-0.00436012726277113
38.1254177856445,14.5409120178223,22.3378981018066,2.32945775985718,1.62226665019989,-0.511513590812683
32.7692559814453,11.4814242553711,17.9719271850586,2.08984470367432,2.38740801811218,-0.709936678409576
25.3837641906738,8.12645095825195,13.1417715454102,1.76225650310516,2.96270489692688,-0.67748898267746
17.9533657836914,5.13297592163086,9.79278579711914,1.51145493984222,3.28648567199707,-0.435382634401321
11.2678184509277,2.56042556762695,7.79474075317383,1.47789430618286,3.27648663520813,0.00611967779695988
5.97362777709961,0.207169189453125,6.61564270019531,1.70637679100037,2.93381690979004,0.580574989318848
2.82013549804688,-1.51470016479492,5.76526107788086,2.16001486778259,2.40228128433228,1.12507081031799
1.95358749389648,-2.18979629516602,5.01681747436523,2.6898398399353,1.82944416999817,1.48736906051636
2.77133697509766,-2.01960021972656,3.79131591796875,3.11540293693542,1.35837090015411,1.60779130458832
4.23095169067383,-1.64223495483398,1.96915512084961,3.32584571838379,1.07126450538635,1.52630257606506
5.37053192138672,-1.34734817504883,0.0260458374023438,3.2992832660675,1.0166734457016,1.33945155143738
5.65389266967773,-1.40198455810547,-1.65615600585938,3.05414724349976,1.17820298671722,1.13691174983978
5.16171615600586,-1.89505920410156,-3.1951057434082,2.64687442779541,1.45883917808533,0.952107787132263
4.26912231445313,-2.3712190246582,-4.55383026123047,2.18151044845581,1.72565996646881,0.793558597564697
3.0082942199707,-2.72508316040039,-5.7338264465332,1.7170068025589,1.89251732826233,0.680690109729767
1.63744491577148,-3.00125885009766,-6.77655807495117,1.29380702972412,1.90022110939026,0.577412188053131
0.598305816650391,-3.07745040893555,-7.654482421875,0.92339038848877,1.73700094223022,0.46001473069191
-0.0616717529296875,-3.01053955078125,-8.29305450439453,0.613031983375549,1.41988956928253,0.333172380924225
-0.617166595458984,-2.92566604614258,-8.69960906982422,0.350742846727371,0.999677181243896,0.207539349794388
-1.04377944946289,-2.8933332824707,-8.81412094116211,0.0997729301452637,0.553859233856201,0.0830184519290924
-1.11817474365234,-2.89677612304687,-8.7180207824707,-0.139568015933037,0.0907956808805466,-0.00966780725866556
-1.04617446899414,-3.0416748046875,-8.38301742553711,-0.399718105792999,-0.352400124073029,-0.0636892318725586
-0.800086212158203,-3.27593765258789,-8.01193908691406,-0.710285842418671,-0.788843214511871,-0.0830943509936333
-0.385897521972656,-3.57441696166992,-7.7023828125,-1.06481409072876,-1.2224338054657,-0.0686347186565399
0.242346038818359,-3.95372817993164,-7.21559509277344,-1.43315851688385,-1.62471783161163,-0.0382416620850563
1.38551879882813,-4.3878254699707,-6.14681762695313,-1.76902174949646,-1.96702063083649,-0.0151091776788235
2.76445129394531,-4.8332991027832,-4.73555236816406,-2.02337241172791,-2.23852372169495,-0.036545492708683
4.38767578125,-5.20258117675781,-3.0033544921875,-2.13815665245056,-2.40122723579407,-0.13831339776516
6.03260513305664,-5.28625717163086,-0.895288238525391,-2.07516551017761,-2.44813418388367,-0.323633998632431
7.53368362426758,-5.22084320068359,1.25214614868164,-1.8490287065506,-2.42384624481201,-0.528581261634827
8.65305587768555,-5.16036895751953,2.85366577148437,-1.48153269290924,-2.47031593322754,-0.683677136898041
9.61914688110352,-4.41072784423828,3.67740280151367,-0.976163327693939,-2.88279938697815,-0.599906086921692
10.387349395752,-3.49822540283203,3.11966262817383,-0.50750744342804,-3.83535861968994,-0.0226464569568634
11.8763031005859,-2.78675491333008,1.73234756469727,-0.220648482441902,-4.8366117477417,0.858032941818237
16.7313070678711,-0.801583099365234,1.56424713134766,-0.233405292034149,-5.20295286178589,1.50410592556
24.473058013916,3.01847305297852,2.34786758422852,-0.797960817813873,-4.76813364028931,1.71928596496582
31.0839106750488,7.67319351196289,2.26613754272461,-1.84307074546814,-3.77988314628601,1.85386502742767
34.5203146362305,10.2680474853516,2.74199798583984,-2.87053179740906,-2.48133420944214,2.20222520828247
36.1100088500977,10.5309008789062,5.91330322265625,-3.42890954017639,-1.33660268783569,2.53431177139282
37.9465397644043,11.8102903747559,10.0812359619141,-3.16484904289246,-0.618354022502899,2.3598997592926
39.8065718078613,14.184054107666,14.5516896057129,-1.98929154872894,-0.391487598419189,1.54536581039429
38.4852694702148,15.6754028320313,17.4713681030273,-0.310574114322662,-0.666069090366364,0.573916256427765
31.7871482849121,14.4379261779785,15.6420222473145,1.11546683311462,-1.33539605140686,0.0643393099308014
21.2993577575684,10.8603657531738,9.09718231201172,1.75852119922638,-2.03872084617615,0.196324244141579
10.3144509887695,8.04561904907227,1.67935775756836,1.61415076255798,-2.54790687561035,0.776065111160278
2.32062423706055,6.80440017700195,-3.52651657104492,0.988676190376282,-2.708416223526,1.46891331672668
-1.64612686157227,6.47014526367188,-5.16171615600586,0.247188225388527,-2.50549006462097,2.05629086494446
-3.11053161621094,6.77116928100586,-3.8369709777832,-0.386199355125427,-2.13199615478516,2.47451829910278
-3.00455200195313,6.92759399414063,-1.59687927246094,-0.79046642780304,-1.75680458545685,2.69141888618469
-2.45504470825195,6.69392990112305,0.639320526123047,-0.923986673355103,-1.53339755535126,2.72609114646912
-2.21584213256836,6.44365036010742,2.38319412231445,-0.868451237678528,-1.46670663356781,2.65599632263184
-2.31403793334961,6.08559494018555,3.42832077026367,-0.723326802253723,-1.44762778282166,2.47323179244995
-2.22317687988281,6.03769454956055,3.8414616394043,-0.553210973739624,-1.38576781749725,2.23896980285645
-2.45534408569336,5.90222625732422,4.14218627929688,-0.37449237704277,-1.28167736530304,2.0695276260376
-3.13702651977539,5.13821502685547,4.28184585571289,-0.188235953450203,-1.13471722602844,2.00797891616821
-3.92169479370117,4.20745056152344,4.23649017333984,0.0135807897895575,-0.968117356300354,2.03231811523438
-4.56400909423828,3.38910232543945,3.91001907348633,0.186317414045334,-0.785115838050842,2.1388258934021
-5.06636444091797,2.54650451660156,3.31276107788086,0.308228671550751,-0.580249547958374,2.32574939727783
-5.39942184448242,1.86287612915039,2.71999374389648,0.3691346347332,-0.40218660235405,2.55955100059509
-5.14959136962891,1.56289993286133,1.92679321289063,0.350749224424362,-0.239554539322853,2.79201889038086
-4.4020458984375,1.41710311889648,1.22235809326172,0.29356637597084,-0.0868978798389435,2.98151183128357
-3.00110916137695,1.2787907409668,0.875679016113281,0.254129469394684,0.0536999814212322,3.07397413253784
-1.04991668701172,1.38267471313477,0.960702209472656,0.262432426214218,0.237431198358536,3.09821844100952
0.843495941162109,1.81347885131836,1.56903717041016,0.301529765129089,0.61766642332077,2.91330909729004
4.50203796386719,2.81489639282227,2.35714828491211,0.262153595685959,1.413538813591,2.32275032997131
8.74316848754883,4.36447402954102,3.28896057128906,-0.0383018478751183,2.69953060150146,1.58743464946747
10.424621887207,5.04001922607422,3.50331481933594,-0.523074150085449,4.09619522094727,1.09494376182556
9.76329711914063,4.60247909545898,2.55638397216797,-0.934459269046783,4.98894119262695,0.969190120697021
8.53001174926758,3.13837371826172,0.914448394775391,-1.1421070098877,5.15080738067627,1.13211035728455
8.01403472900391,1.31441665649414,0.0631686401367188,-1.03851985931396,4.62997913360596,1.43863582611084
9.30016021728516,-0.483195190429688,0.802780609130859,-0.270750522613525,3.25204229354858,1.77643740177155
12.366383972168,-3.01398239135742,0.758772125244141,0.698861420154572,1.24591541290283,1.92577409744263
18.671572265625,-6.35204086303711,1.21247863769531,1.34222781658173,0.408013045787811,2.00831842422485
20.5112466430664,-10.5199736022949,6.81966842651367,1.86098289489746,-0.0481896325945854,2.61280131340027
19.0978857421875,-13.3700468444824,7.30106735229492,1.61378026008606,-0.334620594978333,3.22582697868347
22.6595791625977,-13.5207833862305,6.28647720336914,1.0543167591095,-0.30389329791069,3.5533127784729
27.5521549987793,-14.7712829589844,7.55014938354492,0.584251463413239,0.415754586458206,3.5465931892395
30.3531303405762,-15.0550927734375,12.1851109313965,0.473926812410355,1.45663642883301,3.22697019577026
30.8222547912598,-13.7248091125488,14.7082640075684,0.441503912210464,2.17744541168213,2.76105141639709
28.4493891906738,-12.7856620788574,12.801529083252,0.359653770923615,2.35812878608704,2.28475046157837
24.1935891723633,-12.3294108581543,9.33309173583984,0.294346421957016,2.18684458732605,2.0229229927063
18.4162033081055,-13.2980465698242,7.06665481567383,0.252600818872452,1.92612564563751,2.08135581016541
12.8485313415527,-14.642400970459,5.5754557800293,0.188299342989922,1.58624053001404,2.40795993804932
8.72191268920898,-15.3945867919922,3.55390960693359,0.0317440815269947,1.06375253200531,2.83762812614441
6.51654876708984,-14.6760809326172,1.39464981079102,-0.206559300422668,0.528350651264191,3.18076086044312
6.06493789672852,-12.8952342224121,0.275127868652344,-0.460642963647842,-0.0033816818613559,3.44803643226624
5.8918977355957,-11.3426628112793,0.298479309082031,-0.584000051021576,-0.526586294174194,3.6343104839325
6.00446365356445,-9.52169952392578,1.44973526000977,-0.447314649820328,-1.08947706222534,3.72071313858032
8.46025680541992,-6.40592880249023,2.74379425048828,-0.0869500786066055,-1.39206254482269,3.4610960483551
11.5763269042969,-3.96615234375,4.08021514892578,0.611326217651367,-1.69045186042786,3.24560451507568
11.8031053161621,-2.28544738769531,5.20332962036133,1.48557007312775,-1.97975218296051,2.95602869987488
12.2430404663086,0.480949859619141,4.04713394165039,2.20415782928467,-2.20848393440247,2.56722712516785
12.623998260498,2.42211318969727,1.22175933837891,2.60235548019409,-2.20108222961426,2.13425850868225
12.0673059082031,4.2294548034668,-1.45557312011719,2.59183478355408,-1.91105246543884,1.70896244049072
11.1929740905762,5.59596313476563,-3.77275451660156,2.2519907951355,-1.31631982326508,1.26185870170593
10.0442628479004,6.87669982910156,-5.34673141479492,1.77540719509125,-0.843806624412537,0.910321474075317
7.79099853515625,7.15302520751953,-7.0079768371582,1.31281805038452,-0.587564170360565,0.679304480552673
6.1072998046875,6.64108978271484,-7.86389694213867,0.832719087600708,-0.297250062227249,0.531455636024475
5.26500137329102,6.05026840209961,-7.06141571044922,0.31392702460289,0.31336909532547,0.369440346956253
4.94781097412109,5.5467155456543,-4.56580535888672,-0.110549949109554,1.07723581790924,0.100978545844555
4.97295867919922,5.02879257202148,-1.85075134277344,-0.231930166482925,1.52766752243042,-0.310203939676285
5.06007751464844,3.62650863647461,-0.387394409179688,-0.130727916955948,1.5893292427063,-0.791146874427795
4.79228439331055,1.38791381835938,0.339344329833984,-0.0509587898850441,1.47617208957672,-1.22385466098785
3.94534561157227,-0.877475280761719,-0.00928070068359375,-0.0519486851990223,1.04076945781708,-1.53573501110077
2.40894058227539,-3.02685562133789,-1.61663818359375,-0.152439340949059,0.340294986963272,-1.62930250167847
0.413739624023438,-5.26904296875,-2.68840942382813,-0.415511190891266,-0.275968194007874,-1.51413941383362
-1.09856552124023,-6.66638717651367,-1.4751823425293,-0.693908214569092,-0.667577803134918,-1.37211203575134
-0.844244384765625,-6.63495254516602,0.773291931152344,-0.805151104927063,-0.984794080257416,-1.34242224693298
0.685125274658203,-6.63165939331055,2.80816040039063,-0.739503085613251,-1.18098759651184,-1.43806540966034
2.67418899536133,-7.03222640991211,4.51356399536133,-0.612139582633972,-1.17816758155823,-1.59356105327606
4.44395874023438,-7.82542694091797,5.1733918762207,-0.542523205280304,-1.09643936157227,-1.74523735046387
5.91360260009766,-9.07817184448242,4.31043640136719,-0.555810749530792,-1.14756059646606,-1.96340620517731
8.39005279541016,-9.5754377746582,2.48438369750977,-0.751346170902252,-1.27743315696716,-2.25552105903625
11.798614654541,-11.4110705566406,0.419727172851563,-1.2366396188736,-1.38699054718018,-2.48966908454895
13.966257019043,-14.5762385559082,-1.35797607421875,-2.00499296188354,-1.47882401943207,-2.58679723739624
15.9520275878906,-16.4413600158691,-2.41552688598633,-2.82629013061523,-1.6311092376709,-2.73760890960693
20.5075044250488,-19.2445806884766,-3.03074752807617,-3.55527520179749,-2.05686545372009,-2.77271413803101
24.8011756896973,-25.3428991699219,-2.25296493530273,-3.92521643638611,-2.70582914352417,-2.42461109161377
26.3223124694824,-29.7621592712402,1.94565399169922,-3.54495143890381,-3.0576343536377,-1.78876757621765
26.1938795471191,-29.694200592041,8.99928588867188,-2.66916012763977,-2.52694964408875,-1.3232421875
28.1955171203613,-24.5350291442871,15.5412817382813,-1.5120941400528,-1.26187252998352,-1.28493559360504
30.3495378112793,-17.0302354431152,19.25595703125,-0.317332953214645,0.373361319303513,-1.82915675640106
32.0003050231934,-9.44086761474609,17.8961846923828,0.399991601705551,1.75695335865021,-2.76904988288879
31.5873138427734,-3.71991439819336,10.4850961303711,0.488013088703156,2.37317800521851,-3.78889584541321
28.262727355957,-0.239501953125,1.06144271850586,0.128377944231033,2.46210145950317,-4.44990634918213
22.0466038513184,1.1112890625,-5.12189895629883,-0.513868629932404,2.48495316505432,-4.58645820617676
14.672638092041,1.76318344116211,-6.9504963684082,-1.14431631565094,2.41078639030457,-4.27987480163574
8.12435531616211,2.32436645507813,-6.05999816894531,-1.57140755653381,2.30046916007996,-3.75294971466064
3.20154235839844,2.12453201293945,-3.9803727722168,-1.73582708835602,2.07740950584412,-3.05131793022156
-1.42234222412109,1.5278727722168,-1.62337417602539,-1.65486192703247,1.80776274204254,-2.28681087493896
-5.43519744873047,2.07094345092773,0.855920104980469,-1.36232376098633,1.53257298469543,-1.60908401012421
-7.85386779785156,2.34277816772461,2.43633361816406,-0.993331909179688,1.27667117118835,-1.11642849445343
-8.78837448120117,2.81354919433594,3.12041107177734,-0.528704583644867,0.988070845603943,-0.837799608707428
-8.83612518310547,2.51551895141602,3.30662384033203,0.0189361404627562,0.62554270029068,-0.656380772590637
-9.80266525268555,1.90972869873047,3.01937118530273,0.657528638839722,0.168979704380035,-0.448149025440216
-11.3161679077148,0.356708221435547,2.3712190246582,1.27596652507782,-0.328492134809494,-0.11659798771143
-12.8187432861328,-1.45018432617187,1.26232498168945,1.71499586105347,-0.691922783851624,0.363836795091629
-14.0411013793945,-2.81833923339844,0.368084564208984,1.76957488059998,-0.544212162494659,1.00352168083191
-14.5531864929199,-3.89400238037109,0.233514404296875,1.59834134578705,-0.215347990393639,1.57742357254028
-13.0546527099609,-3.00994079589844,-0.564176788330078,1.45841085910797,0.0523002222180367,1.98181664943695
-10.5669758605957,-1.93861862182617,-1.02402053833008,1.40746033191681,0.174518808722496,2.19227957725525
-8.21521636962891,-1.46754821777344,-1.2261003112793,1.47010326385498,0.0721897780895233,2.23050808906555
-5.90746536254883,-0.874930572509766,-1.66843048095703,1.74283337593079,-0.306667536497116,2.1470639705658
-3.04317169189453,-0.379161529541016,-2.82282989501953,2.17019391059875,-1.10672688484192,2.04426074028015
0.167351989746094,-0.255518646240234,-5.40136779785156,2.43701386451721,-2.15747714042664,1.93150103092194
3.45661193847656,-0.115110626220703,-7.79953079223633,2.19347524642944,-2.94427990913391,1.75173282623291
7.03731582641602,-0.0848735046386719,-8.37014419555664,1.25276827812195,-2.60289168357849,1.63437557220459
13.3089738464355,-0.0338296508789062,-6.02242630004883,0.166413739323616,-1.55861949920654,1.37354397773743
15.5566996765137,-4.77372299194336,-1.96750854492187,0.493596404790878,-2.16049480438232,2.33588123321533
14.4144250488281,-15.9494828796387,-1.60256744384766,0.275314390659332,-1.73851656913757,1.99862062931061
25.5591993713379,-12.0132682800293,-0.205073547363281,-0.166170597076416,0.133270174264908,1.32171726226807
26.9098406982422,-4.14053970336914,8.25233917236328,-0.196324244141579,1.79220294952393,0.916975617408752
25.5138436889648,-5.57410858154297,9.83963836669922,-0.198117613792419,2.18993210792542,1.01817739009857
20.0476606750488,-13.2197593688965,9.11364807128906,0.0449368469417095,2.62418580055237,1.69295740127563
15.5920262145996,-14.0244859313965,14.8802563476563,0.536037623882294,1.80770707130432,2.25730109214783
17.5791439819336,-14.4632235717773,12.605885925293,1.40737867355347,0.156483620405197,2.44039964675903
19.9253649902344,-12.576097869873,10.7257955932617,2.14272499084473,-0.667612671852112,2.30863189697266
22.275178527832,-11.1453730773926,12.402159576416,2.48889923095703,-0.9719278216362,2.00128149986267
22.3703805541992,-10.6525978088379,10.8139622497559,2.61096954345703,-0.958233296871185,1.64926052093506
20.8182582092285,-9.48876800537109,8.81307312011719,2.57488083839417,-0.67662638425827,1.28519070148468
19.344722442627,-8.17105819702148,7.37216949462891,2.39009881019592,-0.282977372407913,0.937280118465424
17.912201385498,-7.43743377685547,5.51558029174805,2.15026998519897,-0.0514203123748302,0.821063458919525
15.2004405212402,-7.70358032226563,3.075205078125,1.93953359127045,-0.176812589168549,1.13689756393433
11.9508480834961,-8.14186889648438,0.222437438964844,1.70478129386902,-0.420082777738571,1.62105011940002
10.6740032958984,-6.67102752685547,-1.70630172729492,1.39045429229736,-0.526868879795074,1.946364402771
11.7327516174316,-3.67306182861328,-2.67658401489258,1.07308292388916,-0.471533447504044,2.01581144332886
12.998669128418,-1.42788070678711,-2.96398635864258,0.840808153152466,-0.412341475486755,1.88516998291016
13.0604905700684,0.652343444824219,-2.91653503417969,0.822691977024078,-0.355229467153549,1.60638439655304
12.2586080932617,2.47315704345703,-2.06899749755859,0.973670601844788,-0.209019258618355,1.22365617752075
10.2500848388672,3.01248550415039,-0.722397766113281,1.26223421096802,0.012106996960938,0.859024167060852
7.36767883300781,2.15312255859375,0.786913604736328,1.57263255119324,0.437283605337143,0.607514977455139
4.4691064453125,1.08284820556641,2.42944793701172,1.80087423324585,0.984916567802429,0.432822525501251
2.1074674987793,1.2548405456543,2.18710189819336,1.85518598556519,1.29255771636963,0.373383164405823
-0.131426696777344,1.09422454833984,-0.622256011962891,1.8147679567337,1.07298016548157,0.455183237791061
-2.11091033935547,0.113314361572266,-4.27630737304688,1.75300657749176,0.288830995559692,0.595038592815399
-3.00859359741211,-0.119002532958984,-8.01657943725586,1.56345105171204,-0.721084177494049,0.85917466878891
-1.61199783325195,-0.142353973388672,-10.6180197143555,0.927952885627747,-1.21654844284058,0.872439026832581
2.39831268310547,2.14024932861328,-10.2445463562012,0.0373321920633316,-0.882389962673187,0.532670557498932
6.27734619140625,4.95140350341797,-6.30084732055664,-0.850385963916779,-0.198072597384453,0.149861395359039
7.16170715332031,4.3159748840332,-3.08074356079102,-1.42393577098846,0.0788554027676582,-0.294902473688126
6.97773971557617,2.29637466430664,-2.66505798339844,-1.65045940876007,-0.125147268176079,-0.7105593085289
5.69984710693359,0.543220367431641,-2.18246154785156,-1.68530082702637,-0.622519493103027,-1.01245391368866
4.28259429931641,-1.57532409667969,-1.39045852661133,-1.62204384803772,-1.15147233009338,-1.12041056156158
3.0798454284668,-3.98725845336914,0.0240998840332031,-1.68304407596588,-1.06747698783875,-1.07490289211273
3.12669799804687,-5.10737915039063,3.57726104736328,-1.79231190681458,-0.646879971027374,-1.08068227767944
4.17481842041016,-4.45069473266602,6.22121292114258,-1.55604314804077,-0.634795844554901,-1.2384135723114
5.13731689453125,-4.03665573120117,6.76009231567383,-0.920062243938446,-1.10311806201935,-1.53335309028625
6.38123016357422,-4.30998733520508,6.87220916748047,-0.5853551030159,-0.914519906044006,-1.8837217092514
8.41714645385742,-4.82072525024414,7.47979568481445,-0.744154572486877,-0.276119470596313,-2.29072141647339
10.1265916442871,-5.36319717407227,6.30937957763672,-1.11333000659943,0.220987513661385,-2.52653527259827
10.2113154602051,-8.01927383422852,3.79595626831055,-1.44397795200348,0.160566240549088,-2.57780694961548
10.7289390563965,-10.8578210449219,0.514031066894531,-1.69142687320709,-0.674683094024658,-2.4721953868866
12.4960144042969,-13.4706376647949,-2.73735763549805,-2.03886699676514,-1.59936773777008,-2.07008171081543
14.148278503418,-17.920284576416,-3.00679733276367,-2.65872645378113,-1.88277685642242,-1.2656044960022
14.4223585510254,-21.8550022888184,-0.307610321044922,-3.15426802635193,-2.01365733146667,-0.263538151979446
15.2751351928711,-22.9317132568359,3.00245635986328,-3.11937475204468,-2.21867418289185,0.571653664112091
18.8923631286621,-21.6939372253418,7.32292190551758,-2.40739965438843,-2.50328397750854,0.90601909160614
23.2875233459473,-20.2310293579102,11.0492729187012,-1.12713813781738,-2.74920177459717,1.01291680335999
26.4507453918457,-18.5534678649902,14.0481367492676,0.088419608771801,-2.54373478889465,0.341210573911667
32.3294705200195,-11.3000015258789,13.5379975891113,0.923940300941467,-2.10033249855042,-0.754429340362549
34.7267353820801,-5.95955703735352,8.28931228637695,1.18664574623108,-1.54566061496735,-1.92318844795227
33.6590057373047,-2.39771392822266,1.84147064208984,0.77485579252243,-0.798287570476532,-2.86018991470337
29.3767108154297,-0.53408935546875,-4.36911437988281,0.0192075166851282,0.00665231002494693,-3.25971388816833
22.6026974487305,-0.469423828125,-7.3814501953125,-0.715233445167542,0.828103303909302,-3.08520889282227
15.2606153869629,-1.48595993041992,-6.68629577636719,-1.31049251556396,1.43356788158417,-2.58006715774536
9.64130081176758,-1.3602214050293,-5.64296539306641,-1.61496722698212,1.8274222612381,-2.10494685173035
6.24336685180664,-0.154628448486328,-3.4489778137207,-1.69615375995636,1.98394477367401,-1.70715713500977
3.46394668579102,1.70854705810547,-1.45527374267578,-1.57381498813629,2.06480288505554,-1.59186375141144
2.14264434814453,2.73481292724609,0.565224609375,-1.30225455760956,2.03606462478638,-1.6523289680481
-0.130229187011719,3.28461959838867,1.64462997436523,-0.831875383853912,1.73205518722534,-1.74581289291382
-3.30258224487305,2.73735763549805,1.77291320800781,-0.318027764558792,1.19765794277191,-1.66438567638397
-7.65867370605469,1.74552017211914,1.09931396484375,0.0681827813386917,0.692389130592346,-1.57619512081146
-10.3686383056641,0.677940216064453,0.220042419433594,0.437904119491577,-0.0134303215891123,-1.43123257160187
-12.8046725463867,-0.762963409423828,-0.902323608398438,0.721049547195435,-0.595435678958893,-0.975716173648834
-15.9098153686523,-3.38580917358398,-0.409248962402344,0.323676079511642,0.183305382728577,-0.375340342521667
-16.7075065612793,-4.39141799926758,1.74402328491211,0.0887607634067535,0.75781661272049,0.372915506362915
-15.7435111999512,-4.04623580932617,1.60855499267578,0.02995097450912,1.15382623672485,1.15760815143585
-14.9753086853027,-4.74483306884766,2.02888092041016,0.0482535474002361,1.53457140922546,1.71746170520782
-12.24333984375,-5.08911712646484,2.73645950317383,0.227368980646133,1.80438852310181,2.14302015304565
-10.0436640930176,-4.42809173583984,3.59387649536133,0.671750962734222,1.7573983669281,2.37443423271179
-7.56287292480469,-3.73937393188477,2.96129196166992,1.59516394138336,0.679216325283051,2.47672700881958
-4.95888793945312,-3.64492034912109,-0.819545745849609,2.98915123939514,-1.64725995063782,2.82745814323425
-1.51993927001953,-4.76084976196289,-5.77603866577148,3.82886672019958,-3.8618438243866,3.02936434745789
6.43990814208984,-3.74057144165039,-10.2273321533203,3.35969662666321,-4.80149841308594,2.29199051856995
14.6337190246582,1.26232498168945,-10.6485562133789,2.30929946899414,-4.37342834472656,0.97140371799469
30.5314096069336,5.18461853027344,-13.6303555297852,1.13770592212677,-3.88282108306885,-0.546811938285828
34.2261763000488,9.02533172607422,-13.9324273681641,0.530436158180237,-2.41650795936584,-1.23231410980225
25.5087542724609,2.16928894042969,-9.37021453857422,0.250075876712799,-2.3411500453949,-0.487515062093735
13.7379817199707,-15.7532409667969,-13.6992123413086,-0.863980054855347,3.15869498252869,0.885238468647003
4.96173202514648,-13.5489248657227,17.1392088317871,-1.79530644416809,6.19710445404053,1.26754105091095
16.3840292358398,-15.4177885437012,10.4812042236328,-1.85751140117645,6.19244289398193,1.59678447246552
11.3742471313477,-12.2255268859863,4.23813674926758,-1.36983287334442,5.57964611053467,1.63409852981567
12.444521484375,-9.46152465820312,9.5320280456543,-0.999368250370026,4.70566749572754,1.78586280345917
11.4645094299316,-11.607013092041,11.5231874084473,-0.680381715297699,2.92274188995361,2.06782579421997
12.1464912414551,-13.0118417358398,11.8182238769531,-0.174599766731262,1.25971853733063,2.28068518638611
13.6074531555176,-13.2157177734375,14.4735520935059,0.494085609912872,0.187465503811836,2.41667461395264
14.8974705505371,-13.1859297180176,17.1248387145996,1.12142467498779,-0.283813327550888,2.41723775863647
16.5910487365723,-13.3814231872559,17.3817045593262,1.53233230113983,-0.250336080789566,2.27210354804993
17.4495135498047,-13.4936897277832,16.0373501586914,1.72741973400116,0.0909797102212906,2.12193369865417
17.0041896057129,-12.8581114196777,13.7092414855957,1.83142578601837,0.246669441461563,2.07838678359985
16.8131867980957,-10.6040986633301,9.68665649414063,1.95699918270111,0.0935121104121208,2.00178480148315
16.1512632751465,-8.68014953613281,5.32817001342773,2.09150910377502,-0.620905876159668,2.12129044532776
14.4470571899414,-8.48046478271484,-0.127834167480469,2.23257160186768,-1.50352513790131,2.45830655097961
14.630276184082,-7.28370346069336,-3.44104431152344,2.14233899116516,-1.88596892356873,2.68879818916321
16.1987145996094,-4.67103652954102,-4.16134643554688,1.83187210559845,-1.57873630523682,2.66074895858765
17.3761660766602,-1.01264419555664,-3.65988922119141,1.53398823738098,-1.04375541210175,2.31894755363464
17.9169914245605,2.35011291503906,-4.18724258422852,1.34609079360962,-0.652484059333801,1.80067825317383
16.0032211303711,4.08695114135742,-5.32936752319336,1.2963775396347,-0.28618648648262,1.36539256572723
12.2099592590332,3.82604370117188,-4.79258377075195,1.29414260387421,0.243546351790428,1.08471930027008
8.58928848266602,2.7301725769043,-3.65749420166016,1.21512794494629,0.860567986965179,0.868268013000488
5.65359329223633,2.37331466674805,-3.34973419189453,1.04260754585266,1.51457321643829,0.646526575088501
3.53729415893555,2.45848754882813,-3.30123504638672,0.823254704475403,2.06058049201965,0.482097387313843
1.61574005126953,1.60271713256836,-3.32743057250977,0.584822177886963,2.39992785453796,0.427754521369934
0.096998291015625,0.518521728515625,-3.45765975952148,0.363872230052948,2.33973073959351,0.485444456338882
-1.350791015625,0.418679351806641,-4.44725189208984,0.212929576635361,1.76073932647705,0.521827518939972
-1.14751373291016,0.710722045898438,-5.81390991210938,0.0369806550443172,1.21158111095428,0.4106804728508
0.381855926513672,1.38836288452148,-4.76968139648438,-0.290961265563965,1.0492467880249,0.127378195524216
1.60406433105469,2.43438766479492,-2.51761459350586,-0.619848608970642,0.906454563140869,-0.19915172457695
1.65944915771484,2.31119384765625,-1.67411865234375,-0.81828898191452,0.519737720489502,-0.592946171760559
2.22871536254883,1.32160171508789,-1.67711242675781,-0.884880781173706,-0.102723449468613,-1.03220427036285
2.86773651123047,0.246237945556641,-1.65031814575195,-0.888040125370026,-0.867413640022278,-1.3983838558197
2.76669662475586,-1.46186004638672,-1.50826354980469,-0.934636354446411,-1.44593715667725,-1.55984163284302
2.26703567504883,-3.83966537475586,-0.323627014160156,-1.1106926202774,-1.6503814458847,-1.54397583007812
2.34607131958008,-5.12579086303711,1.97439422607422,-1.20275783538818,-1.76437962055206,-1.48074424266815
2.89438110351563,-5.31469802856445,4.01046020507813,-0.994507730007172,-2.19511342048645,-1.45515525341034
4.39156768798828,-5.10408599853516,4.32600402832031,-0.624556005001068,-2.8570659160614,-1.64510917663574
7.19598587036133,-4.56999664306641,4.01465148925781,-0.549263894557953,-2.92444276809692,-2.02965641021729
10.2440972900391,-4.2632844543457,5.06516693115234,-1.11887145042419,-2.01163220405579,-2.4017493724823
12.7030339050293,-5.95626388549805,5.82842971801758,-1.94886612892151,-1.0399934053421,-2.69010353088379
14.0454423522949,-9.90026229858399,3.76212661743164,-2.66159987449646,-0.700241208076477,-2.81247305870056
15.5135893249512,-14.042897644043,0.615819396972656,-3.06170248985291,-1.32618093490601,-2.69479036331177
16.836238861084,-18.2969013977051,-2.23440353393555,-3.4184877872467,-2.11145853996277,-2.10468530654907
16.7266667175293,-22.8297752380371,-1.53326156616211,-3.73001146316528,-2.63190627098083,-1.2886974811554
17.3908355712891,-24.7008842468262,3.01443145751953,-3.59391117095947,-2.81090450286865,-0.396379560232162
19.9642840576172,-25.3336184692383,9.68141738891602,-2.67191791534424,-3.02621817588806,0.224163860082626
24.0798257446289,-23.3191076660156,15.0193171691895,-1.10924756526947,-3.2783625125885,0.184299007058144
29.3755133056641,-18.1285015869141,17.2366561889648,0.610003709793091,-3.08611989021301,-0.709324181079865
35.1912194824219,-12.2765707397461,15.8674534606934,1.7970826625824,-2.41130185127258,-1.96258223056793
35.7753048706055,-6.74946441650391,9.00123184204102,1.88331401348114,-2.00399327278137,-3.11469388008118
31.5874635314941,-4.38842422485352,-4.25594970703125,0.803215503692627,-1.19312703609467,-3.61667203903198
24.048540802002,-3.70120330810547,-12.7253375244141,-0.425497502088547,0.155612498521805,-3.48905181884766
17.9087585449219,-3.03119659423828,-11.442654876709,-1.26999807357788,1.1006988286972,-3.12242722511292
13.8833294677734,-3.18088531494141,-9.28504165649414,-1.65729892253876,1.49233531951904,-2.6910662651062
10.323282623291,-2.4284001159668,-6.8834358215332,-1.77595901489258,1.57297801971436,-2.38646030426025
8.47866851806641,-0.192649383544922,-4.88479202270508,-1.7209380865097,1.54033243656158,-2.22208094596863
7.11186080932617,1.62921203613281,-2.442919921875,-1.55259037017822,1.51258754730225,-2.13273954391479
5.02100875854492,2.04355041503906,0.0595761108398438,-1.33989942073822,1.49127757549286,-2.057621717453
1.82246017456055,1.83593215942383,1.9829264831543,-1.09649527072906,1.43534231185913,-1.96519470214844
-1.7580940246582,1.4180012512207,3.18223251342773,-0.828925371170044,1.34098386764526,-1.93900012969971
-4.59649154663086,0.897234191894531,3.89505020141602,-0.552816033363342,1.14840221405029,-1.88758170604706
-7.85431686401367,0.712667999267578,3.72964416503906,-0.27343687415123,0.848784863948822,-1.79547464847565
-10.7015460205078,-0.533041534423828,2.87117935180664,-0.128220558166504,0.664387047290802,-1.49175560474396
-13.5028207397461,-3.15019912719727,2.36208801269531,-0.179866701364517,0.868716239929199,-0.945169985294342
-16.1231217956543,-5.18701354980469,2.88060974121094,-0.261755436658859,1.30969226360321,-0.196698680520058
-17.6018966674805,-5.93530746459961,2.9650341796875,-0.26411047577858,1.43027913570404,0.614685535430908
-17.3321575927734,-6.11927490234375,2.02903060913086,-0.17971196770668,1.46404647827148,1.30707168579102
-15.407310333252,-6.19890930175781,1.89101760864258,0.0415746085345745,1.18390774726868,1.74893116950989
-13.5614987182617,-5.02699630737305,1.07626190185547,0.394323617219925,0.683604657649994,2.08860611915588
-11.1399842834473,-4.49560134887695,-0.0851728820800781,1.01135885715485,-0.650100529193878,2.2850968837738
-8.27838500976562,-4.03680541992188,-3.91855133056641,2.07123255729675,-2.94288015365601,2.47294878959656
-3.63025085449219,-4.09698028564453,-8.61997467041016,2.74986219406128,-4.68976926803589,2.78743004798889
3.8989421081543,-3.40182586669922,-11.3618229675293,2.10649299621582,-5.63146924972534,2.48173832893372
14.1807609558105,0.460442504882813,-15.0456623840332,0.364602982997894,-4.02227783203125,1.66989648342133
17.941989440918,2.37032089233398,-8.44573699951172,-1.30491161346436,-1.68619585037231,0.813032448291779
25.8841735839844,3.18582504272461,-6.25204879760742,-2.60752177238464,0.0574377253651619,-0.299177646636963
31.5204029846191,4.78345275878906,-8.57461898803711,-2.5066032409668,-0.926806151866913,-1.914754986763
31.1981231689453,1.77830200195313,-20.5958207702637,-1.88452792167664,-1.38263094425201,-1.47567331790924
13.4311198425293,-9.89038284301758,-10.5780528259277,-2.01586484909058,3.20682859420776,-0.0726867169141769
5.76750640869141,-15.0663194274902,20.0105378723145,-2.40410184860229,5.94893455505371,0.970541894435883
12.8033253479004,-16.3828317260742,12.1749320983887,-1.74402189254761,5.84758043289185,1.46335184574127
12.2232815551758,-8.44094696044922,5.65509017944336,-0.897401928901672,4.65415716171265,1.56809985637665
14.7091621398926,-5.08567428588867,6.95154418945313,-0.136825233697891,3.48897099494934,1.48275458812714
14.0732844543457,-6.06224349975586,9.31707504272461,0.560928583145142,2.27259945869446,1.5649733543396
11.9959043884277,-6.32599502563477,11.0287655639648,1.15229678153992,1.20952332019806,1.7051192522049
12.1855599975586,-7.32217346191406,11.5850088500977,1.67556238174438,0.641504347324371,1.98120009899139
12.4398811340332,-9.20885009765625,12.9831015014648,2.08016180992126,0.422176003456116,2.31598472595215
13.4679432678223,-10.6766976928711,12.662318572998,2.34268236160278,0.590482473373413,2.57678604125977
15.0526977539063,-11.6754208374023,12.1590650939941,2.42543339729309,1.16971230506897,2.87399363517761
14.686259765625,-12.2168449401855,10.9509274291992,2.33589649200439,1.67139530181885,3.25342321395874
13.3899554443359,-11.8028059387207,7.07279205322266,2.11680102348328,1.70975744724274,3.54971551895142
13.1791937255859,-9.30749496459961,1.45347747802734,1.80844557285309,0.959283947944641,3.54802298545837
15.6444172668457,-5.73876617431641,-5.93096649169922,1.42213249206543,-0.302533507347107,3.17312669754028
18.4377584838867,-2.18470687866211,-10.6350842285156,0.996593475341797,-0.625577092170715,3.09788179397583
16.3076879882813,-2.30655349731445,-6.38452331542969,0.493943929672241,0.0583005920052528,3.2942852973938
13.6537069702148,-3.66527801513672,-1.27968887329102,0.0744470730423927,0.903144478797913,3.55346131324768
14.0903489685059,-4.32106430053711,1.00171691894531,-0.0414843261241913,1.62484490871429,3.54875755310059
15.3811148071289,-3.30752197265625,2.93838958740234,0.144143864512444,2.08645987510681,3.20458817481995
16.882642364502,-0.452209625244141,3.42607543945312,0.560511767864227,1.98228669166565,2.67357301712036
15.5052067565918,0.585881652832031,2.06046524047852,1.08540320396423,1.57296335697174,2.27878475189209
11.4862142944336,-0.267643432617188,1.24346420288086,1.59856271743774,1.07358765602112,1.98915362358093
8.23811874389648,-0.530347137451172,0.568966827392578,2.04286074638367,0.636890709400177,1.7171745300293
5.71541473388672,-0.0176632690429688,0.273630981445313,2.32477498054504,0.431555390357971,1.4211186170578
3.86271743774414,0.818497924804688,0.593366088867188,2.41307806968689,0.422209560871124,1.12885940074921
2.08591232299805,1.29016708374023,0.155526580810547,2.32797765731812,0.474584370851517,0.928112685680389
0.348325653076172,1.36725677490234,-1.08853637695313,2.07442569732666,0.569969475269318,0.76216447353363
-0.415386199951172,1.27055786132812,-2.16464859008789,1.60220456123352,0.845363199710846,0.559817492961884
-0.235909423828125,1.3314811706543,-2.67314117431641,0.939802885055542,1.09939897060394,0.262121081352234
0.508941650390625,1.63445114135742,-4.0665934753418,0.217931002378464,1.08738255500793,-0.116374544799328
1.10440338134766,1.41590560913086,-5.94683349609375,-0.553109765052795,0.689766705036163,-0.451927244663239
1.02162551879883,0.225431213378906,-7.20811065673828,-1.27736711502075,-0.0470543280243874,-0.722667932510376
0.885708160400391,-1.27310256958008,-7.51048187255859,-1.80051469802856,-0.905376255512238,-0.901106119155884
1.0249186706543,-3.381767578125,-6.06493789672852,-2.05335974693298,-1.60717165470123,-1.02442300319672
1.46739852905273,-4.96382766723633,-1.32294891357422,-2.09749579429626,-1.88124263286591,-1.16742408275604
2.63871276855469,-5.29808258056641,4.64529006958008,-1.78022146224976,-1.90396976470947,-1.45287692546844
5.10228973388672,-5.39088958740234,8.95527740478516,-1.31610333919525,-1.61363589763641,-1.92831695079803
7.76240798950195,-5.25332565307617,11.2699140930176,-1.08516359329224,-1.07433271408081,-2.54066681861877
9.97510665893555,-6.22749984741211,10.7823779296875,-1.19708240032196,-0.795776784420013,-3.02923917770386
10.840606842041,-9.72153396606445,6.17046844482422,-1.49087834358215,-1.54806387424469,-3.10101556777954
10.4388423156738,-13.414654083252,-1.14227462768555,-1.86978888511658,-2.96534276008606,-2.76468992233276
12.6768383789063,-17.3442823791504,-4.29307250976562,-2.53760027885437,-3.72759628295898,-2.18238162994385
16.9235073852539,-21.6578622436523,1.47278732299805,-2.90700173377991,-3.59238052368164,-1.56832408905029
20.476668548584,-23.8067935180664,11.0352021789551,-2.38993000984192,-3.32582902908325,-1.32282614707947
25.4520222473145,-24.0209980773926,16.7649870300293,-1.19210469722748,-3.44130206108093,-1.56054389476776
29.149633026123,-23.8168226623535,17.6584790039063,0.135813757777214,-3.76741719245911,-2.01194477081299
29.2126519775391,-21.5544273376465,15.3466864013672,1.02411651611328,-3.83316469192505,-2.38288044929504
26.722879486084,-19.1761729431152,10.8462950134277,1.11511480808258,-3.14042711257935,-2.63027858734131
23.5373538208008,-16.465609588623,4.85545303344727,0.3326775431633,-2.2570538520813,-2.78872847557068
21.2640312194824,-13.2630194091797,-4.17766250610352,-0.825260102748871,-1.23943042755127,-3.0076265335083
18.9618186950684,-9.43862228393555,-8.92039993286133,-1.68693602085114,-0.244808152318001,-2.99446439743042
14.4846290588379,-6.52538040161133,-7.96448776245117,-2.35871052742004,0.620090186595917,-2.94662427902222
12.0194055175781,-4.76968139648438,-7.18910018920898,-2.88292169570923,1.31171762943268,-2.79497313499451
9.07098678588867,-3.37069061279297,-6.28048965454102,-3.30126714706421,1.89553582668304,-2.49902582168579
6.62986312866211,-1.93442733764648,-5.14195724487305,-3.51012325286865,2.09943771362305,-2.27195048332214
5.88905364990234,0.179027709960938,-4.16374145507813,-3.33859300613403,1.92940139770508,-2.11340594291687
4.67178497314453,1.64852188110352,-2.16195419311523,-2.87986516952515,1.52757608890533,-1.97588837146759
3.25093963623047,2.04010757446289,0.42870849609375,-2.26566672325134,1.2014411687851,-1.81010341644287
1.20454513549805,1.86901336669922,3.15513885498047,-1.72333419322968,1.18324482440948,-1.58885550498962
-1.19047439575195,1.46230911254883,4.75725723266602,-1.24395906925201,1.272944688797,-1.34351873397827
-3.35153045654297,1.1735595703125,4.67642532348633,-0.814133107662201,1.26546120643616,-1.11321997642517
-5.18222351074219,1.02940933227539,3.60420501708984,-0.472371011972427,1.1869945526123,-0.940004765987396
-6.74078247070313,0.9819580078125,2.35370544433594,-0.200264647603035,0.96941351890564,-0.832467377185822
-8.01298690795898,0.956211547851563,0.848585357666016,0.011705125682056,0.686131477355957,-0.734628438949585
-9.40958267211914,0.406404876708984,-0.157173156738281,0.199196726083755,0.373249471187592,-0.481726169586182
-11.1589947509766,-0.938548278808594,-0.560135192871094,0.338072329759598,0.042138397693634,-0.00908830389380455
-12.7392585754395,-2.32990493774414,-0.843945007324219,0.499711811542511,-0.444478929042816,0.546843647956848
-12.6823768615723,-2.82417709350586,-1.01159637451172,0.71978372335434,-0.902076840400696,1.06449794769287
-11.3811328125,-2.92222320556641,-0.190254364013672,0.800402939319611,-0.907374382019043,1.5376490354538
-9.19403091430664,-2.8163932800293,1.24017105102539,0.795093655586243,-0.809615075588226,1.88443088531494
-6.6487239074707,-2.47285766601563,0.942290496826172,1.07527816295624,-1.27557981014252,2.09914994239807
-4.1146435546875,-2.35969299316406,-1.87844375610352,1.42030644416809,-1.86787915229797,2.27115106582642
0.271834716796875,-2.03142562866211,-4.32959655761719,1.27825367450714,-2.12656855583191,2.08443355560303
7.13880477905273,-0.0218545532226562,-5.96225143432617,0.726215541362762,-1.59241080284119,1.50497543811798
11.9038458251953,1.22265747070313,-4.74827590942383,0.11938738077879,-0.333174496889114,1.03543865680695
14.6774281311035,0.0233514404296875,0.1676513671875,-0.494564205408096,2.15171504020691,1.20592725276947
11.7183815002441,-3.12490173339844,8.64482299804687,-0.0799512937664986,2.75599694252014,1.21414148807526
16.0916871643066,-3.46230010986328,1.19316879272461,1.321657538414,-0.384060323238373,1.31270861625671
13.0817463684082,-7.7980339050293,-17.3840995788574,1.60061728954315,0.133588954806328,1.55932605266571
13.3236433410645,-7.48653167724609,1.53865036010742,1.16353476047516,3.57628917694092,1.66923558712006
17.0025430297852,-9.68515960693359,19.9695231628418,0.866459727287292,4.67340230941772,1.70363163948059
16.5171025085449,-12.0604202270508,5.59296936035156,0.782972276210785,3.90880465507507,1.65524780750275
16.3403201293945,-9.32470916748047,-0.686921539306641,0.994276821613312,4.06630992889404,1.81241238117218
12.5572370910645,-8.41535018920898,8.82429977416992,0.931879997253418,3.36501002311707,2.00166940689087
12.347223815918,-10.0462088012695,6.57582550048828,0.604126393795013,1.798668384552,2.00643610954285
13.5875445556641,-8.59901824951172,2.6967919921875,0.247136548161507,0.239301532506943,1.91467940807343
13.9065312194824,-7.18820205688477,3.28267364501953,-0.0802184045314789,-0.720773875713348,1.75639116764069
14.9420777893066,-7.80342269897461,6.01060089111328,-0.409847974777222,-0.884527146816254,1.56570279598236
15.9164016723633,-10.5250630187988,8.87085296630859,-0.613098323345184,-0.334118843078613,1.46316230297089
14.8598986816406,-13.8890176391602,12.180320892334,-0.59126091003418,0.643111824989319,1.79784309864044
11.8379827880859,-16.4406115722656,15.0124314880371,-0.374515533447266,1.62842202186584,2.44510507583618
9.11933624267578,-16.6474813842773,15.4098550415039,0.0295288637280464,2.17519688606262,3.07610583305359
8.44753326416016,-15.9702896118164,13.264366607666,0.616805136203766,2.00770044326782,3.57196712493896
8.12660064697266,-15.3088151550293,10.233020324707,0.8739133477211,2.20298004150391,3.90858364105225
8.70589599609375,-12.9655879211426,9.15571060180664,0.812113404273987,1.95200943946838,3.93041634559631
14.0822657775879,-7.88739807128906,4.48931442260742,0.954865992069244,0.830018103122711,3.62415099143982
15.5784045410156,-6.22989486694336,-0.152083740234375,1.24842309951782,-0.649789214134216,3.53514862060547
14.4005039978027,-5.79564788818359,-2.26598785400391,1.36571478843689,-1.38318514823914,3.35230565071106
14.832505645752,-3.28087738037109,-1.66738265991211,1.3028838634491,-1.40103363990784,3.15309500694275
15.5167327880859,-0.921932830810547,-0.765807495117187,1.21686542034149,-1.21397960186005,2.87766528129578
15.392640838623,0.300874328613281,-0.778531036376953,1.27176296710968,-1.07146823406219,2.56031036376953
13.462554473877,0.903521118164063,-1.39554794311523,1.43282032012939,-1.08993971347809,2.16613674163818
11.1176806640625,1.88817352294922,-1.99939224243164,1.66174960136414,-0.773604333400726,1.68849468231201
8.66248626708984,3.18926788330078,-0.275876312255859,1.81673073768616,-0.386227875947952,1.1618971824646
6.11628112792969,3.39583831787109,-0.0314346313476562,1.76630032062531,-0.0843766629695892,0.756434440612793
3.02820281982422,2.38963073730469,-1.31995513916016,1.57083308696747,0.187034338712692,0.567701280117035
0.218545532226563,1.65211441040039,-2.17512680053711,1.27294814586639,0.341776251792908,0.518913984298706
-1.47173950195312,1.34360595703125,-3.19974609375,0.854102671146393,0.377680718898773,0.472385913133621
-1.74671768188477,1.47129043579102,-4.28543838500977,0.407189607620239,0.096985936164856,0.292281925678253
-0.831820220947266,1.63924118041992,-5.32757125854492,-0.0222096983343363,-0.373082488775253,-0.0557255819439888
0.441881103515625,1.19631225585938,-5.29179565429687,-0.449166893959045,-0.839971661567688,-0.476377189159393
1.22909408569336,0.213905181884766,-4.61175979614258,-0.886760711669922,-1.3902108669281,-0.83978658914566
1.53311187744141,-1.31052474975586,-4.64394287109375,-1.27651834487915,-2.02169609069824,-1.06967413425446
1.01503921508789,-3.48355590820313,-4.28394149780273,-1.64452087879181,-2.40699076652527,-1.12858688831329
0.484841766357422,-4.93568618774414,-1.73594009399414,-1.98149442672729,-2.49579858779907,-1.21545052528381
2.20446578979492,-4.79078750610352,1.20664077758789,-2.16034340858459,-2.50938057899475,-1.44264793395996
4.89886276245117,-4.55397994995117,3.017724609375,-2.41380214691162,-1.96316254138947,-1.85265779495239
7.65717681884766,-4.53047882080078,5.23386611938477,-2.75259304046631,-1.41222453117371,-2.30433654785156
10.0197138977051,-6.41491012573242,4.87521194458008,-3.02238202095032,-1.1950831413269,-2.60820984840393
11.302995300293,-11.091185760498,2.68556533813477,-3.27381539344788,-1.58277308940887,-2.65527939796448
12.1346658325195,-16.0815083312988,-0.719403991699219,-3.50916409492493,-2.22365140914917,-2.38848924636841
13.2543374633789,-20.828586730957,-1.77171569824219,-3.82834601402283,-2.35463762283325,-1.94979178905487
14.6274320983887,-23.3472491455078,1.8251545715332,-4.09445476531982,-2.30932569503784,-1.48241662979126
17.5941128540039,-26.0635006713867,5.10678039550781,-3.89784526824951,-2.59412097930908,-1.17151153087616
22.0108282470703,-28.7782553100586,7.72812927246094,-2.91580939292908,-3.1642689704895,-1.07343876361847
24.7007345581055,-29.1012835693359,11.9016004943848,-1.25527107715607,-3.61704277992249,-1.33407914638519
27.2572682189941,-26.509573059082,14.7784680175781,0.334534049034119,-3.49369478225708,-1.95998907089233
29.1116120910645,-22.0385206604004,13.289065246582,1.09417653083801,-2.94845581054688,-2.82763743400574
28.7923260498047,-16.8205215454102,4.8764094543457,0.337692022323608,-2.88399267196655,-3.5583815574646
24.4312948608398,-13.851296081543,-10.9545199584961,-1.07582116127014,-2.26682329177856,-3.79212880134583
18.541492767334,-11.4600187683105,-14.2443786621094,-1.92766845226288,-1.24837243556976,-3.78666234016418
15.3680918884277,-8.6939208984375,-9.06215515136719,-2.21205163002014,-0.520837843418121,-3.70243906974792
13.3990864562988,-7.73815841674805,-6.13798599243164,-2.28512525558472,0.119086973369122,-3.53956508636475
10.7171136474609,-5.88037170410156,-3.98097152709961,-2.37138032913208,0.556510925292969,-3.29060173034668
7.74130187988281,-3.29479843139648,-3.41200469970703,-2.31339311599731,0.847651422023773,-2.9377806186676
4.88613922119141,-1.67681304931641,-2.18800003051758,-2.10301399230957,1.09195947647095,-2.44244575500488
2.16165481567383,-0.435444488525391,-0.302670593261719,-1.73502838611603,1.1970146894455,-2.16168642044067
1.42368942260742,0.847238159179688,1.16068634033203,-1.46023118495941,1.41850233078003,-1.8241058588028
-0.467477874755859,1.57442596435547,2.00582885742188,-1.3951141834259,1.70073783397675,-1.71587097644806
-1.77171569824219,3.02281402587891,1.70181106567383,-1.33293902873993,1.94911563396454,-1.56882393360138
-4.09233993530273,1.86287612915039,1.99190780639648,-1.18095636367798,2.10420441627502,-1.32851576805115
-6.88702835083008,0.544417877197266,2.5002507019043,-0.937859356403351,2.1279821395874,-1.12196469306946
-9.28818511962891,-0.124541015625,2.30625411987305,-0.609000742435455,1.94461834430695,-0.882690072059631
-11.757300567627,-1.05261108398437,1.77470947265625,-0.350184381008148,1.70972812175751,-0.560444116592407
-12.9491221618652,-1.8824853515625,0.911753997802734,-0.0279208477586508,1.1156599521637,-0.217989847064018
-13.5213821411133,-1.87395309448242,-0.940344543457031,0.22709546983242,0.284231185913086,0.135640382766724
-14.0776254272461,-2.09624084472656,-2.06540496826172,0.561755478382111,-0.630086302757263,0.565160870552063
-14.262191619873,-2.70397705078125,-1.23133941650391,0.779006838798523,-0.959502041339874,1.2216089963913
-13.2251481628418,-3.81496673583984,1.04348007202148,0.731519758701324,-0.539067447185516,1.94876754283905
-10.3904928588867,-4.1480241394043,2.93509643554688,0.601677596569061,-0.0447821170091629,2.47640776634216
-6.93403060913086,-3.70988525390625,2.27197540283203,0.727914094924927,-0.472403228282928,2.65894484519958
-2.6729914855957,-3.06233184814453,-1.2404704284668,1.09339511394501,-1.67891561985016,2.72582960128784
3.59522369384766,-1.96840667724609,-4.84826797485352,1.27496814727783,-1.86031150817871,2.55377864837646
9.99636245727539,-0.120948486328125,-2.6583219909668,0.839279234409332,-0.0846040993928909,2.10769939422607
11.8667230224609,0.797990570068359,4.0330632019043,0.247513383626938,1.00852310657501,1.75404179096222
13.9803277587891,-1.34360595703125,2.34577194213867,0.42825573682785,-0.111462347209454,1.49659395217896
20.9266328430176,-4.85171081542969,-7.19733306884766,0.58016300201416,-2.40857076644897,0.994395852088928
18.6308569335938,-6.36745880126953,-13.8490507507324,1.26895785331726,-0.552369713783264,0.509357810020447
12.4127874755859,-3.88322479248047,7.60972549438477,1.58228278160095,0.429027795791626,0.781535267829895
13.318853302002,-11.8789974975586,0.423469390869141,1.14535415172577,0.744907736778259,1.27342617511749
11.3534403991699,-15.188465423584,-3.00006134033203,0.940645515918732,1.46836984157562,1.97656273841858
10.9905949401855,-14.0777751159668,3.16187484741211,0.935955166816711,1.77248179912567,2.79281711578369
13.8233042907715,-16.4871647644043,3.76721603393555,1.07100594043732,1.28060579299927,3.0695469379425
17.9035194396973,-16.5920965576172,3.71377716064453,1.4625358581543,0.401962339878082,2.87726759910583
20.6814427185059,-15.6957604980469,4.8713200378418,2.10078930854797,-0.316284745931625,2.58375072479248
20.4748722839355,-15.4079090881348,6.27914245605469,2.64697098731995,-0.571804940700531,2.4696524143219
18.2222067260742,-15.5504127502441,6.32554595947266,2.82951188087463,-0.262269705533981,2.46456265449524
15.736026763916,-15.5872361755371,5.09600280761719,2.63780379295349,0.18724125623703,2.58336639404297
13.4402508544922,-15.7554862976074,2.82372802734375,2.21536898612976,0.584083437919617,2.87134885787964
11.4254406738281,-15.9945391845703,1.09497299194336,1.73208427429199,0.831957936286926,3.19845771789551
10.4006716918945,-14.8658862304688,-0.149389343261719,1.26079607009888,0.848779499530792,3.42709279060364
10.5220692443848,-12.5380769348145,-1.91406967163086,0.816705465316772,0.451045751571655,3.51342964172363
12.2060673522949,-10.1806292724609,-4.47569274902344,0.526517868041992,0.0424859412014484,3.47641181945801
13.2092811584473,-8.27404403686523,-4.2198747253418,0.492277055978775,-0.194480270147324,3.40041565895081
13.4842593383789,-6.744375,-2.2559587097168,0.647374212741852,-0.237720146775246,3.25522089004517
14.5621678161621,-5.77020080566406,-0.514180755615234,0.935449957847595,-0.184166371822357,3.00021719932556
14.6434487915039,-4.50518142700195,0.465531921386719,1.23014795780182,-0.187907844781876,2.68086314201355
13.3993858337402,-2.87058059692383,-0.504900054931641,1.374351978302,-0.274659782648087,2.35210752487183
10.6614294433594,-1.29031677246094,-2.63257553100586,1.33244681358337,-0.397612065076828,2.03173899650574
8.05624694824219,-0.1389111328125,-4.48557220458984,1.29975020885468,-0.560729384422302,1.79034650325775
5.3167936706543,0.466579742431641,-4.55966812133789,1.40729153156281,-0.744680047035217,1.58975744247437
2.95425659179688,0.969234466552734,-3.55256240844727,1.58228230476379,-0.86336749792099,1.42147183418274
0.998872833251953,1.1590397644043,-2.38229598999023,1.70303606987,-0.937371969223022,1.32720279693604
-0.347726898193359,1.13104797363281,-2.06555465698242,1.64245641231537,-0.722673535346985,1.24280667304993
0.418978729248047,1.55361923217773,-1.22190902709961,1.38889873027802,-0.0985372290015221,1.12629842758179
2.34143096923828,2.5914111328125,-0.156574401855469,1.01404941082001,0.475058138370514,0.802098572254181
4.65995956420899,3.76122848510742,-1.18882781982422,0.581148087978363,0.852699458599091,0.290487229824066
5.98680038452148,3.95223129272461,-2.5292903137207,0.161515399813652,0.949176430702209,-0.252018660306931
5.82019683837891,2.9169841003418,-3.91870101928711,-0.306474447250366,0.824614822864532,-0.665455758571625
4.36552185058594,1.12865295410156,-5.48594192504883,-0.83571457862854,0.528333365917206,-0.852685034275055
2.27856170654297,-0.999471588134766,-6.61324768066406,-1.4194164276123,0.0696547105908394,-0.826148808002472
0.232765960693359,-3.17160461425781,-6.37150039672852,-1.89104723930359,-0.500405550003052,-0.766922771930695
-0.659977569580078,-4.90604782104492,-4.34860702514648,-2.10209035873413,-0.864013075828552,-0.80677056312561
0.425265655517578,-5.42935958862305,-0.149239654541016,-2.10279154777527,-1.03346729278564,-1.01021528244019
2.74618927001953,-5.28640686035156,2.93868896484375,-2.03341865539551,-1.08683705329895,-1.38481867313385
5.22353759765625,-5.63398406982422,3.93711273193359,-2.05703377723694,-0.644640803337097,-1.80839002132416
6.7924250793457,-6.5960334777832,5.14330444335938,-2.25272798538208,0.126095876097679,-2.16559290885925
7.13790664672852,-8.82235382080078,4.50143920898438,-2.47250366210938,0.524475753307343,-2.35049605369568
6.76398422241211,-12.5433160400391,1.26816284179688,-2.69276309013367,0.300521224737167,-2.37829518318176
7.41767486572266,-16.2508062744141,-2.75382339477539,-2.98933553695679,-0.231085687875748,-2.30830669403076
10.1586250305176,-20.3048258972168,-5.38101013183594,-3.51068615913391,-0.363934546709061,-2.07912158966064
12.9687313842773,-25.2307823181152,-4.15176635742188,-4.12989473342896,-0.583630979061127,-1.93729543685913
16.199912109375,-29.0122187805176,-2.84468444824219,-4.38650226593018,-0.998329043388367,-1.96106743812561
20.0774487304688,-32.1830749511719,-0.402662658691406,-3.96180367469788,-1.44530606269836,-2.03435277938843
22.3396943664551,-33.2154780578613,3.9372624206543,-2.91615915298462,-1.56724584102631,-2.21849131584167
23.7743110656738,-31.180609588623,7.32756225585937,-1.62360310554504,-1.39653635025024,-2.2727165222168
21.8183285522461,-30.0645304870605,7.20122497558594,-0.621340751647949,-1.14643466472626,-2.43943762779236
20.4286184692383,-24.9713717651367,2.69050506591797,-0.528928816318512,-0.838567614555359,-2.87233424186707
19.6062286376953,-18.0891334533691,-5.92737396240234,-1.15273547172546,-0.284660756587982,-3.35023498535156
17.0246969604492,-12.6066343688965,-10.0566870117188,-1.59812033176422,0.43322679400444,-3.48507499694824
13.0471682739258,-9.54310501098633,-7.32292190551758,-1.77779018878937,0.923528611660004,-3.36990976333618
10.4672831726074,-8.69107681274414,-4.81847991943359,-1.92032504081726,1.34310400485992,-3.15659284591675
8.54722595214844,-7.16050964355469,-2.82552429199219,-1.98110020160675,1.73966443538666,-2.79061794281006
5.70748123168945,-5.0822314453125,-0.838107147216797,-1.89471185207367,1.95561003684998,-2.30864953994751
3.1660661315918,-3.0319450378418,0.330812072753906,-1.6212432384491,1.92612111568451,-1.80745363235474
1.54463790893555,-1.02132614135742,1.23927291870117,-1.1941339969635,1.69299018383026,-1.44009959697723
0.809965667724609,0.647553405761719,2.04938827514648,-0.816988289356232,1.4029575586319,-1.22919499874115
-0.176183624267578,1.61065063476563,2.3424787902832,-0.402285397052765,1.03947997093201,-1.0678985118866
-2.13336364746094,2.55339019775391,2.54590576171875,0.0752564072608948,0.573874711990356,-0.963826775550842
-4.13559997558594,3.28012893676758,2.27556793212891,0.449469685554504,0.0984565317630768,-0.940937399864197
-5.70104461669922,3.45960571289063,1.30603408813477,0.61849570274353,-0.206073805689812,-0.951585531234741
-7.01890411376953,3.68683319091797,0.491278381347656,0.626401603221893,-0.329925179481506,-1.01442205905914
-8.26551177978516,3.82769027709961,-0.125888214111328,0.611591994762421,-0.593594908714294,-1.22346866130829
-9.43323348999023,3.63668746948242,-1.4129118347168,0.598497271537781,-0.99065887928009,-1.29392743110657
-10.3387005615234,2.83734970092773,-2.24428298950195,0.573641955852509,-1.01062965393066,-1.00237917900085
-11.153755645752,1.34884506225586,-0.685574340820313,0.396249085664749,-0.428680241107941,-0.260289639234543
-12.2461839294434,-1.15410003662109,1.23987167358398,0.0611781366169453,0.503872752189636,0.540876269340515
-11.2532986450195,-1.51784362792969,2.1793180847168,-0.299917995929718,1.22079539299011,1.1694997549057
-9.57214462280274,-1.99445251464844,1.70136199951172,-0.339593529701233,0.976861596107483,1.51489925384521
-8.9479426574707,-2.85351608276367,-0.736468505859375,0.330700695514679,-0.97976154088974,1.97005045413971
-7.91853332519531,-4.32241149902344,-5.85297866821289,1.48206436634064,-3.54067707061768,2.63103318214417
-3.0798454284668,-5.13537094116211,-7.59655288696289,2.12994885444641,-3.81947016716003,2.92527222633362
2.83989440917969,-2.64634689331055,-1.45587249755859,1.80964648723602,-2.23759603500366,2.69540858268738
8.21042633056641,0.175734558105469,1.85973266601563,0.534314513206482,0.521326541900635,1.86527156829834
12.8223358154297,1.54748199462891,2.85456390380859,-0.358892917633057,1.85358834266663,1.38308477401733
19.2278155517578,-3.14885192871094,-2.26643692016602,-0.100973218679428,-1.32388854026794,1.12110984325409
19.6473930358887,-9.98783020019531,-18.6893852233887,0.738207995891571,-3.56280970573425,0.569088220596313
9.46421905517578,-10.0423168945313,-13.2778385925293,0.926815211772919,0.336431801319122,0.219525426626205
13.6224220275879,-4.44141403198242,11.5511791992188,0.448379904031754,2.36293697357178,0.545214593410492
15.1218539428711,-10.7482489013672,6.09996505737305,-0.158452764153481,3.322674036026,1.06437575817108
11.9069892883301,-21.2893286132813,-1.51290390014648,-0.263699024915695,2.93926787376404,1.9506504535675
7.14928298950195,-22.208117980957,-1.55601425170898,0.29038068652153,2.01415419578552,2.8207733631134
8.16656753540039,-19.9316519165039,1.71438491821289,0.817311346530914,1.62326109409332,2.98857641220093
15.1164651489258,-17.034875793457,3.49822540283203,1.06473660469055,1.0818178653717,2.67121338844299
19.8247741699219,-15.5055061340332,2.78151580810547,1.3591560125351,0.486593335866928,2.22573852539062
20.5101988220215,-15.226785736084,3.47053298950195,1.78629744052887,0.0764401778578758,1.89426624774933
18.3437539672852,-15.6622302246094,4.46341827392578,2.24062204360962,0.00229884055443108,1.79610693454742
14.5715982055664,-16.5400048828125,5.08642272949219,2.57793068885803,0.178386777639389,1.96186053752899
9.86822891235352,-16.350648651123,4.77656707763672,2.80603694915771,0.414988130331039,2.29352951049805
6.17959945678711,-16.3305903625488,3.58339828491211,2.97665452957153,0.468202620744705,2.78452777862549
4.46626235961914,-17.1519323730469,1.03794158935547,3.03045225143433,0.30598521232605,3.36854243278503
5.00903366088867,-17.513879699707,-1.6431330871582,2.96520376205444,0.0916127413511276,3.83060431480408
7.13281723022461,-16.1307559204102,-3.19076477050781,2.79016065597534,-0.046953659504652,4.1202220916748
9.43428131103516,-14.0744819641113,-3.76167755126953,2.60817646980286,-0.183285132050514,4.21896314620972
11.7848432922363,-12.146042175293,-3.82873809814453,2.43612027168274,-0.343798100948334,4.07189226150513
13.8394706726074,-9.82766326904297,-3.56034622192383,2.33636999130249,-0.508818209171295,3.68979048728943
15.6644755554199,-7.34283050537109,-3.09316772460937,2.27086806297302,-0.655859053134918,3.04008030891418
16.7128953552246,-4.3108854675293,-3.05394927978516,2.20789432525635,-0.84635603427887,2.47039532661438
14.4481050109863,-2.59260864257813,-3.73473358154297,2.08257627487183,-1.06919050216675,2.08996510505676
10.3819606018066,-2.06555465698242,-5.32951721191406,1.8342764377594,-1.27279734611511,1.84801411628723
6.98717010498047,-1.3268408203125,-7.09479629516602,1.64925277233124,-1.08601629734039,1.65889763832092
4.68600540161133,0.335751800537109,-5.00768646240234,1.62057185173035,-0.771939098834991,1.48819494247437
2.85695892333984,1.51949020385742,-2.50683700561523,1.59823596477509,-0.432577520608902,1.35927081108093
1.35363510131836,0.784668273925781,-2.2752685546875,1.39386630058289,-0.199849203228951,1.24425625801086
1.46829666137695,0.105231170654297,-3.99159942626953,1.00744688510895,0.128579273819923,0.981561005115509
3.18283126831055,1.69028503417969,-4.46656173706055,0.637721598148346,0.788928985595703,0.641575217247009
4.38558013916016,3.27878173828125,-2.26359283447266,0.398127675056458,1.41906142234802,0.176312446594238
5.57530609130859,3.75404342651367,-1.01982925415039,0.219404518604279,1.53027200698853,-0.457902312278748
5.9778190612793,2.82896713256836,-3.31695236206055,-0.154840975999832,1.24041199684143,-1.07487332820892
4.94152404785156,0.921184387207031,-6.49185012817383,-0.746696829795837,0.884921789169312,-1.45061457157135
2.98464340209961,-0.930165710449219,-7.39761657714844,-1.31766474246979,0.375509172677994,-1.5420218706131
0.776884460449219,-2.68167343139648,-6.744375,-1.58883261680603,-0.295908629894257,-1.56560122966766
0.0604742431640625,-4.38632858276367,-3.97154113769531,-1.58627891540527,-0.705613315105438,-1.62973845005035
1.44255020141602,-5.54881118774414,1.17176330566406,-1.64982903003693,-0.90421587228775,-1.84050762653351
4.10192001342773,-5.41124725341797,3.49418380737305,-1.81048476696014,-1.00783097743988,-2.23389005661011
6.60172164916992,-5.15048950195313,3.66587677001953,-2.06102728843689,-0.690860450267792,-2.76140213012695
8.13543228149414,-5.91240509033203,4.73046295166016,-2.32020664215088,-0.200069978833199,-3.26968860626221
8.38915466308594,-8.69646560668945,4.57299041748047,-2.50545644760132,-0.125670045614243,-3.51384162902832
7.28894256591797,-13.4987791442871,1.47682891845703,-2.70614075660706,-0.674464702606201,-3.45473766326904
6.37524261474609,-18.6618424987793,-2.82357833862305,-3.0009183883667,-1.26100063323975,-3.12662672996521
7.10737014770508,-23.5490295410156,-3.93816055297852,-3.55063223838806,-1.22350442409515,-2.7112410068512
8.41774520874023,-27.1068310546875,-1.43177261352539,-4.22866821289062,-1.24917328357697,-2.42650318145752
11.1934231567383,-30.3001405334473,0.0300874328613281,-4.42103958129883,-1.63069665431976,-2.18319249153137
13.670771484375,-33.252451171875,2.22587127685547,-3.92706322669983,-2.19561123847961,-1.85691142082214
15.0202153015137,-34.4405305480957,5.28925094604492,-2.98452019691467,-2.6851053237915,-1.67707562446594
18.1770007324219,-33.7664822387695,6.83194290161133,-2.01015281677246,-2.8341703414917,-1.88284158706665
22.7502905273438,-29.2264233398438,5.4271142578125,-1.59474396705627,-2.67968988418579,-2.55143642425537
27.4909323120117,-21.8582954406738,-1.30618377685547,-2.15132021903992,-2.09072494506836,-3.63537287712097
28.693830871582,-16.1910804748535,-9.73246124267578,-2.66559934616089,-0.864921987056732,-4.11931610107422
20.8796305847168,-13.758489074707,-8.4880989074707,-2.46091318130493,0.201489433646202,-3.86078119277954
13.1254554748535,-11.7023648071289,-4.20610336303711,-2.06291651725769,0.879347562789917,-3.49304580688477
10.0619261169434,-9.63112197875977,-3.79625564575195,-1.87161505222321,1.37835574150085,-3.15319681167603
8.43106750488281,-6.8882258605957,-4.28334274291992,-1.76664733886719,1.82363224029541,-2.82876014709473
6.32464782714844,-4.22735916137695,-3.72964416503906,-1.59166729450226,2.10898661613464,-2.37087845802307
3.54058731079102,-2.03995788574219,-2.61266693115234,-1.38835728168488,2.39211440086365,-1.91491377353668
1.98831527709961,0.428259429931641,-1.26591751098633,-1.20909881591797,2.57667946815491,-1.61647641658783
1.03839065551758,1.81138320922852,-0.578995971679688,-1.04312372207642,2.69828248023987,-1.3693755865097
-1.03330123901367,2.01735488891602,0.0833766174316406,-0.944841861724854,2.73299336433411,-1.12328028678894
-3.53205505371094,2.25865310668945,0.488883361816406,-0.866866648197174,2.4896388053894,-0.927177667617798
-5.29389129638672,2.63631774902344,0.0899629211425781,-0.774776935577393,2.04466438293457,-0.852783858776093
-6.62133087158203,3.04945861816406,-0.280516662597656,-0.754091620445251,1.582634806633,-0.889799654483795
-7.96748153686524,2.89737487792969,-0.405506744384766,-0.794302940368652,1.16488683223724,-0.869165778160095
-9.73141342163086,1.79461807250977,-0.342637481689453,-0.877488672733307,0.804521501064301,-0.724271416664124
-10.4424348449707,0.954564971923828,0.181722106933594,-0.867084205150604,0.479007065296173,-0.555062413215637
-10.4776116943359,0.528550872802734,1.13613739013672,-0.678037345409393,0.211780965328217,-0.343050837516785
-10.4404888916016,-0.0252973937988281,2.23126007080078,-0.300927877426147,-0.0295072924345732,-0.0617211535573006
-9.85146377563477,-0.822838897705078,3.6739599609375,0.0863463431596756,0.0842882469296455,0.294159442186356
-8.98731079101563,-1.53116592407227,5.30871047973633,0.269412040710449,0.436917662620544,0.70061320066452
-8.22853866577148,-1.98472274780273,5.24823623657227,0.477277606725693,0.580176591873169,1.07286107540131
-7.37067260742188,-2.07917633056641,3.9996826171875,0.962175846099854,0.0604851804673672,1.24593007564545
-6.55442001342773,-1.74252639770508,1.67905838012695,1.7143018245697,-1.34502768516541,1.46732580661774
-5.4030143737793,-2.52330276489258,-1.98382461547852,2.28438997268677,-2.48071765899658,1.87842953205109
-1.85404449462891,-3.31755111694336,-3.34254913330078,2.55661606788635,-2.87621903419495,2.04098463058472
2.80741195678711,-1.86946243286133,-2.38259536743164,2.07163643836975,-1.56803464889526,1.65307283401489
5.77124862670899,0.963995361328125,0.794996795654297,1.04964232444763,0.024890435859561,0.979302406311035
8.91590927124023,1.09632019042969,-0.615070953369141,0.593350172042847,0.0620364733040333,0.734489977359772
13.7231625366211,-4.05686370849609,-5.64895294189453,0.776796698570251,-3.38174033164978,0.693293809890747
15.3612062072754,-9.01859573364258,-21.6502281188965,1.03749966621399,-4.59422540664673,0.26943838596344
10.665171661377,-9.18475021362305,-13.2718510437012,1.05953574180603,0.246944278478622,-0.563368797302246
14.1075631713867,0.584384765625,17.3221284484863,0.825825452804565,1.70284461975098,0.0921102166175842
16.4046862792969,-13.3323252868652,2.52629653930664,0.647507905960083,2.75494122505188,1.13498568534851
13.9967935180664,-25.8635165405273,-3.23612045288086,0.286592364311218,2.83280777931213,2.08730626106262
11.1392358398438,-22.4034617614746,-2.30296096801758,0.500808477401733,2.8817298412323,2.84926772117615
14.7314657592773,-19.2082063293457,2.18859878540039,0.887268841266632,2.62793207168579,2.76883578300476
22.1492903137207,-16.2011096191406,3.60929443359375,1.36693370342255,1.34549534320831,2.21768808364868
24.5417651367188,-15.1766400146484,1.44299926757813,1.98386836051941,-0.138484641909599,1.62370026111603
23.246808013916,-15.3384535217285,1.99445251464844,2.5986704826355,-1.06310248374939,1.34898269176483
18.8708079528809,-15.5381382751465,3.88816452026367,2.99547791481018,-1.12279188632965,1.31334745883942
14.3364372253418,-15.0176705932617,5.33221160888672,3.15041351318359,-0.656898260116577,1.45583057403564
10.8765321350098,-14.9759074401855,5.43699371337891,3.09849905967712,-0.000388022570405155,1.8098703622818
7.97421752929688,-15.4465287780762,4.71399719238281,2.92370629310608,0.685651838779449,2.35625028610229
5.84100357055664,-16.0243272399902,3.85553237915039,2.69344663619995,1.20166540145874,3.01087784767151
4.80066696166992,-16.3196630859375,2.79169464111328,2.47725367546082,1.388827085495,3.6127724647522
5.27233612060547,-15.5581965637207,1.66364044189453,2.37486147880554,1.06808841228485,3.94616413116455
8.03244644165039,-13.1244076538086,-0.431851959228516,2.41005754470825,0.00305997207760811,3.73970293998718
13.3472941589355,-8.93911102294922,-3.48999252319336,2.51498508453369,-0.997558355331421,3.26480197906494
13.4730326843262,-6.17810256958008,-3.40706497192383,2.71864557266235,-1.87863850593567,2.8389048576355
13.5906880187988,-4.54933959960938,-3.50106948852539,2.86659383773804,-2.48666644096375,2.43549585342407
12.8172463989258,-2.93689270019531,-4.2393342590332,2.2756495475769,-2.77289700508118,2.20332217216492
10.491682434082,-1.17640365600586,-12.8034750366211,0.800213038921356,-1.85009956359863,2.20009541511536
8.76771743774414,1.96346694946289,-16.8028582763672,0.0126436231657863,-0.237070873379707,2.14783024787903
8.53180801391602,3.60285781860352,-7.50239868164063,0.0959337204694748,0.818831741809845,1.91873478889465
7.69968841552734,2.77582763671875,-2.53078720092773,0.588046729564667,0.83787202835083,1.51972246170044
5.47576309204102,1.1737092590332,-1.91990753173828,1.33235096931458,0.27992832660675,1.16256296634674
2.67104553222656,-0.114811248779297,0.452509002685547,2.05199337005615,0.108489461243153,0.971851944923401
2.12438232421875,0.257763977050781,3.7170703125,2.41414380073547,0.297581613063812,0.790366530418396
3.09990371704102,2.5867707824707,3.73817642211914,2.27642416954041,0.441714823246002,0.39198961853981
4.59544372558594,4.55248306274414,-0.0633183288574219,1.72702848911285,0.22503525018692,-0.287683188915253
5.67140625,5.04989868164063,-4.67882034301758,0.970817029476166,-0.19659748673439,-1.00276672840118
4.51745590209961,3.80927856445313,-7.16200653076172,0.0318087972700596,-0.711067974567413,-1.47199702262878
2.21883590698242,1.2981005859375,-8.66128875732422,-1.00820696353912,-1.13324344158173,-1.60467886924744
0.383652191162109,-1.69717071533203,-8.25937454223633,-1.86201512813568,-1.58583915233612,-1.47054183483124
-1.00994979858398,-4.47973434448242,-5.84294952392578,-2.27342581748962,-2.19450187683105,-1.29032206535339
-0.766256561279297,-6.15969085693359,-2.04774169921875,-2.31764197349548,-2.66668319702148,-1.18290793895721
0.929866333007813,-6.86547317504883,1.7628840637207,-2.10857820510864,-2.82314205169678,-1.23364889621735
3.41335189819336,-6.32015716552734,4.46506484985352,-1.81454932689667,-2.67137050628662,-1.45897817611694
5.55210433959961,-5.59551406860352,5.57006698608398,-1.69678723812103,-1.81589925289154,-1.75020122528076
6.74766815185547,-6.02991073608398,6.05146591186523,-1.7961950302124,-0.938591718673706,-1.93299877643585
7.45674362182617,-9.19627624511719,3.11068130493164,-2.03281426429749,-0.44664540886879,-1.893634557724
8.43750411987305,-14.6199476623535,-1.63025985717773,-2.44665265083313,-0.633659243583679,-1.58927810192108
10.1923049926758,-20.995489654541,-6.30264358520508,-3.11083984375,-0.835879147052765,-0.98938113451004
12.0649108886719,-27.0710554504395,-6.94899948120117,-3.80305600166321,-0.709018409252167,-0.498724043369293
15.9960360717773,-29.274174041748,-3.68683319091797,-4.2154655456543,-0.577470779418945,-0.42505356669426
22.6946063232422,-31.2629383850098,-1.04362976074219,-4.39656019210815,-0.787704706192017,-0.688791215419769
25.6178773498535,-34.5989012145996,-1.00291442871094,-4.32565832138062,-1.2779815196991,-0.990691125392914
24.214395904541,-34.860407409668,-0.622555389404297,-3.81860208511353,-1.41793465614319,-1.32748568058014
21.9614309692383,-31.521001739502,2.30236221313477,-3.09788036346436,-1.24346721172333,-1.79346668720245
20.7649690246582,-26.6612077331543,3.11921356201172,-2.51570606231689,-0.906980514526367,-2.4463517665863
19.2740693664551,-21.2721144104004,-0.0992436218261719,-2.21489381790161,-0.434613227844238,-3.01363754272461
15.6644755554199,-15.4167407226563,-3.10589126586914,-1.85886883735657,0.038037396967411,-3.40273118019104
12.6948010253906,-11.105855255127,-3.23597076416016,-1.527672290802,0.303511947393417,-3.3079686164856
7.41557922363281,-10.7660618591309,-3.85283798217773,-1.46648240089417,0.606634557247162,-3.07768440246582
5.75627975463867,-10.0092356872559,-4.32106430053711,-1.60984408855438,0.949652075767517,-2.83879065513611
5.12743743896484,-7.51856506347656,-4.22032379150391,-1.73070693016052,1.21963965892792,-2.39178919792175
3.28955932617187,-4.9386799621582,-3.26755508422852,-1.77749812602997,1.39394640922546,-1.87552344799042
2.28889022827148,-2.61700790405273,-2.04085601806641,-1.81342256069183,1.53362607955933,-1.46847069263458
1.93921737670898,-0.742755432128906,-0.967587890625,-1.84315490722656,1.6802726984024,-1.22153496742249
1.3509407043457,0.968785400390625,0.381257171630859,-1.87727606296539,1.98664331436157,-1.07264912128448
-0.00733474731445312,2.49037124633789,2.08202041625977,-1.81070530414581,2.14995503425598,-1.02400588989258
-1.58490417480469,3.7506005859375,2.75517059326172,-1.5400812625885,2.13123297691345,-0.912523090839386
-4.13889312744141,3.66303268432617,3.15259414672852,-1.09376263618469,1.91887354850769,-0.757568418979645
-6.39979156494141,2.91773254394531,3.13987060546875,-0.579004764556885,1.53124594688416,-0.752268433570862
-7.78980102539063,2.7684928894043,2.7065217590332,-0.203198119997978,1.16429007053375,-0.724982738494873
-9.25884613037109,2.289638671875,2.02019897460938,0.0501747541129589,0.84848815202713,-0.697705566883087
-9.40853485107422,2.97760803222656,1.7292041015625,0.257061898708344,0.832713484764099,-0.64949494600296
-9.02443359375,3.12205764770508,2.58377700805664,0.393421322107315,0.999091267585754,-0.58409059047699
-8.37044357299805,2.73331604003906,2.83300872802734,0.360653519630432,1.34176981449127,-0.431272566318512
-7.51272720336914,2.43139389038086,2.22811660766602,0.199487015604973,1.95459938049316,-0.221792846918106
-6.12107116699219,1.66453857421875,2.19548446655273,0.0719410330057144,2.42161583900452,-0.0714904293417931
-4.8141389465332,0.850082244873047,1.46994323730469,0.178672015666962,2.12017798423767,0.0258603598922491
-4.33663192749023,-0.228275299072266,-0.985999603271484,0.783365905284882,0.717686772346497,0.294936299324036
-4.44350967407227,-2.97356643676758,-3.67904937744141,1.49097180366516,-0.91903555393219,0.870696008205414
-2.05432800292969,-4.88628890991211,-4.84901641845703,1.74167239665985,-1.41791307926178,1.16848850250244
2.19608322143555,-3.55495742797852,-2.84139129638672,1.27279555797577,-0.30535164475441,0.995853662490845
6.08379867553711,-0.306861877441406,0.362995147705078,0.550191521644592,0.855921864509583,0.555408358573914
12.1084703063965,1.16008758544922,-1.04841979980469,0.166326925158501,1.24722301959991,0.492893576622009
13.119168548584,-2.66775238037109,-3.55495742797852,0.0273807570338249,-0.000345412001479417,0.560051560401917
13.0540539550781,-6.68824172973633,-12.0360209655762,-0.216937899589539,-2.39985275268555,0.338540494441986
9.6233381652832,-7.71151382446289,-18.0499150085449,0.00810772739350796,0.103735186159611,-0.0679697319865227
10.2902014160156,-3.71347778320313,6.66024993896484,0.63448429107666,1.85774743556976,0.36483895778656
12.2461839294434,-9.19852157592774,12.3572529602051,0.733199954032898,2.65400052070618,0.992772102355957
11.219768371582,-16.7652864074707,4.76055038452148,0.566099643707275,3.68329834938049,1.55913937091827
11.7676290893555,-15.6667208862305,3.85448455810547,0.279971718788147,3.90161657333374,2.43508696556091
11.2251571655273,-15.6752531433105,3.58220077514648,0.103031046688557,3.45936703681946,3.20012426376343
13.8373750305176,-17.8178974914551,3.00410293579102,0.0999529659748077,2.01928567886353,3.70917892456055
15.6240596008301,-18.8395230102539,2.5385710144043,0.53505277633667,0.403622299432755,3.81173467636108
17.6849739074707,-16.9615283203125,5.57186325073242,1.41800785064697,-0.613707602024078,3.57791447639465
19.836300201416,-15.5164334106445,9.89577163696289,2.3841028213501,-0.929344952106476,3.19013833999634
19.5457543945313,-14.8028672790527,12.1797221374512,3.10855770111084,-0.626131534576416,2.79406452178955
17.5095387268066,-14.3802960205078,11.827354888916,3.4714515209198,-0.0392904132604599,2.61041474342346
14.2502165222168,-14.910643157959,9.43278442382813,3.49564290046692,0.632603824138641,2.71083450317383
10.9603578186035,-15.6575898742676,6.96157333374024,3.28197264671326,1.23537576198578,3.04276347160339
8.33676361083984,-15.8755366516113,4.41117691040039,2.90957164764404,1.39211440086365,3.46177554130554
6.92549835205078,-14.9194747924805,0.615819396972656,2.49386286735535,0.929999828338623,3.72534680366516
7.63292724609375,-12.5623265075684,-4.13140869140625,2.06429290771484,-0.288575857877731,3.68695592880249
10.0610279846191,-9.32695449829102,-9.87511459350586,1.51217532157898,-1.66799402236938,3.36863398551941
10.88296875,-6.99869613647461,-12.2891445922852,1.18064534664154,-2.26640152931213,3.24709820747375
9.24597290039063,-5.89758590698242,-6.67536849975586,1.16200423240662,-2.30845165252686,3.18575525283813
11.3573323059082,-4.60487411499023,-1.1256591796875,1.30129563808441,-1.9737856388092,2.91659069061279
11.7664315795898,-2.82402740478516,1.35917358398438,1.46891474723816,-1.63798093795776,2.56119632720947
12.1458924865723,-1.38297409057617,0.0458047485351563,1.53548336029053,-1.40466678142548,2.18161273002625
9.31737442016602,-0.509989471435547,-1.87694686889648,1.57355129718781,-1.17243242263794,1.98670136928558
5.38580017089844,-0.0938548278808594,-3.04392013549805,1.64166522026062,-1.01553010940552,1.85719609260559
3.26171722412109,0.497116241455078,-3.39254516601563,1.67481696605682,-0.923821568489075,1.69771862030029
3.03329223632812,1.04812042236328,-3.74551116943359,1.58548474311829,-0.865023493766785,1.35945022106171
5.0680110168457,2.09609115600586,-4.1623942565918,1.28611695766449,-0.49159449338913,0.856058716773987
6.70321060180664,3.73982299804688,-3.29644500732422,0.778355717658997,0.0248262546956539,0.396544963121414
6.85379745483398,4.39785461425781,-2.89887176513672,0.26728630065918,0.630279123783112,-0.0143533730879426
6.88493270874023,3.61977264404297,-2.2562580871582,-0.047486025840044,0.967309653759003,-0.464779406785965
6.37284759521484,2.47106140136719,-2.21823715209961,-0.331788063049316,0.697324216365814,-0.968958139419556
5.76945236206055,0.753083953857422,-4.6895979309082,-0.70884370803833,0.0472830943763256,-1.41755294799805
4.15026947021484,-1.33926498413086,-7.62170059204102,-1.1148556470871,-0.655825257301331,-1.53073406219482
0.842747497558594,-3.80284194946289,-7.9848454284668,-1.32624781131744,-1.01182842254639,-1.34902930259705
-1.02132614135742,-5.75313629150391,-4.01465148925781,-1.42215645313263,-0.823116481304169,-1.11610555648804
0.272433471679688,-6.14771575927734,0.941392364501953,-1.63876473903656,-0.0174583531916142,-1.12381780147552
3.42936859130859,-5.09510467529297,3.88277572631836,-2.05586552619934,1.2661554813385,-1.44379365444183
6.7014143371582,-4.84377731323242,4.70771026611328,-2.48448038101196,2.26242327690125,-1.98680794239044
8.24186096191406,-7.08416839599609,2.69125350952148,-2.78492975234985,2.18647265434265,-2.43736147880554
8.0327458190918,-11.8330430603027,-2.29038711547852,-3.01022601127625,0.887488842010498,-2.61626029014587
8.67835327148438,-18.4206939697266,-7.38833587646484,-3.47883892059326,-0.0789544731378555,-2.55490851402283
11.6757202148438,-25.0032554626465,-5.49342636108398,-4.40355920791626,0.0235729701817036,-2.46360063552856
13.8111795043945,-28.4359172058105,0.382604370117188,-5.09283113479614,0.271360665559769,-2.23765540122986
15.341746673584,-33.0535148620605,3.99728759765625,-5.12937116622925,0.159479677677155,-1.89363396167755
15.7488999938965,-38.6370538330078,6.93867095947266,-4.47467517852783,-0.461978018283844,-1.52691864967346
15.975528717041,-39.473963470459,10.0941091918945,-3.09314060211182,-1.1635308265686,-1.58339178562164
18.9974446105957,-33.6723280334473,13.0580955505371,-1.50807917118073,-1.44549107551575,-2.12330842018127
22.9534181213379,-26.2086987304688,13.5261721801758,-0.546415388584137,-1.06897902488708,-3.57395076751709
27.9361065673828,-15.5125415039063,9.30330368041992,-0.285043984651566,-0.814966678619385,-4.79336309432983
24.7359114074707,-15.4438343811035,1.73055130004883,-0.342112600803375,-0.694718599319458,-4.56936979293823
14.0205940246582,-21.1427833557129,-2.03262313842773,-0.743596911430359,0.0476026721298695,-3.82181596755981
8.17614761352539,-17.9463304138184,-3.28342208862305,-1.26983034610748,0.796208441257477,-3.20203304290771
7.12802719116211,-11.8246604919434,-4.77596832275391,-1.69421303272247,1.22771060466766,-2.81723213195801
7.92047927856445,-7.70402938842773,-4.99166976928711,-1.96527945995331,1.41321229934692,-2.6436915397644
8.27569061279297,-4.10087219238281,-4.22152130126953,-2.12963247299194,1.49081301689148,-2.61683511734009
7.50150054931641,-1.13479019165039,-3.31755111694336,-2.19749402999878,1.49378430843353,-2.62965440750122
6.05835159301758,0.685724029541016,-2.34921478271484,-2.20790266990662,1.40786623954773,-2.51006317138672
2.93449768066406,1.58206008911133,-1.65690444946289,-2.21211290359497,1.32534158229828,-2.29435205459595
0.643960876464844,2.07483535766602,-0.795146484375,-2.19234609603882,1.2932767868042,-2.17277932167053
-1.0632389831543,2.5724006652832,-0.163759460449219,-2.07414269447327,1.06270492076874,-2.10384249687195
-3.41469909667969,2.90171585083008,0.0911604309082031,-1.85846054553986,0.765831649303436,-2.07608723640442
-5.757626953125,2.32526458740234,0.733474731445312,-1.65135395526886,0.470233291387558,-2.06945943832397
-9.16903289794922,1.54089569091797,1.21637054443359,-1.31732165813446,-0.17604985833168,-1.73122215270996
-10.1758392333984,1.92514663696289,0.841400299072266,-0.810511231422424,-0.608672678470612,-1.28621757030487
-10.3099603271484,2.29502746582031,2.61012222290039,-0.348681032657623,-0.632867753505707,-0.985094785690308
-9.41571990966797,2.34502349853516,3.7456608581543,-0.0699623078107834,-0.544433236122131,-0.807209432125092
-8.41744583129883,2.12857360839844,3.11981231689453,0.061802115291357,-0.445615828037262,-0.686860144138336
-7.84009643554687,1.87080963134766,2.35550170898438,0.129550009965897,-0.333833366632462,-0.546055614948273
-7.6784326171875,1.61783569335938,1.8730549621582,0.162092238664627,-0.255621910095215,-0.34874626994133
-7.49236953735352,1.1879296875,1.44314895629883,0.200282499194145,-0.217690780758858,-0.0996642783284187
-6.7924250793457,0.636476440429688,1.19975509643555,0.244655281305313,-0.216990098357201,0.134817197918892
-5.66317337036133,0.408799896240234,1.10365493774414,0.308401256799698,-0.244086429476738,0.311101943254471
-4.4114762878418,0.457897796630859,1.08449478149414,0.41281658411026,-0.327723264694214,0.424098819494247
-3.2570768737793,0.248932342529297,1.16308135986328,0.608985304832458,-0.478680044412613,0.499104082584381
-2.0454963684082,-0.262703704833984,1.53071685791016,0.948072016239166,-0.667182564735413,0.514650523662567
-0.530646514892578,-0.689466247558594,2.09983337402344,1.39700269699097,-0.858992218971252,0.496332794427872
0.793948974609375,-1.48745681762695,2.50953140258789,1.92445743083954,-0.969282507896423,0.531150162220001
1.87919219970703,-2.75202713012695,2.7541227722168,2.47339034080505,-1.03145849704742,0.61771434545517
3.23671920776367,-4.05806121826172,2.15911010742188,2.95032525062561,-1.09737551212311,0.73988550901413
5.18401977539063,-6.39919281005859,0.476758575439453,3.19544005393982,-1.19271719455719,0.934667825698853
6.82700317382813,-9.61031524658203,-1.51514923095703,3.11174535751343,-1.2981504201889,1.29562497138977
7.7549235534668,-13.2770901489258,-3.13433212280273,2.77994513511658,-1.3335942029953,1.95438146591187
9.30105834960938,-17.7692486572266,-3.63893280029297,2.42830276489258,-1.24460279941559,2.81049728393555
12.1104162597656,-22.1795274353027,-3.19690200805664,2.17259001731873,-1.07979094982147,3.76552510261536
15.7129747009277,-24.6612167358398,-1.916015625,2.06578636169434,-0.762197494506836,4.55171203613281
20.877534942627,-25.3286787414551,0.183069305419922,2.14240479469299,-0.192270368337631,4.76888084411621
26.6853076171875,-23.2824339294434,2.21224960327148,2.30177164077759,0.503932654857635,4.26221179962158
30.5752684020996,-18.675613861084,3.03344192504883,2.45719861984253,1.03504765033722,3.15879058837891
31.9896771240234,-14.2298588562012,1.80928756713867,2.46203780174255,1.1708025932312,1.90688514709473
29.3166856384277,-12.5777444458008,-0.914747772216797,2.28915429115295,1.00385677814484,1.0699337720871
23.313868560791,-13.6790043640137,-2.89752456665039,1.9452018737793,0.869661927223206,0.903891801834106
16.4211520385742,-15.626604309082,-3.9184016418457,1.47783493995667,0.827101945877075,1.38920891284943
10.8566235351563,-16.9901188659668,-4.10476409912109,1.03430092334747,0.838160157203674,2.14467883110046
8.4976789855957,-16.741934967041,-2.98449371337891,0.781161069869995,0.768374145030975,2.78720021247864
8.97144378662109,-14.8965724182129,-1.57233032226563,0.79081529378891,0.523142039775848,3.09594106674194
10.7894132995605,-11.8897750854492,-0.174986114501953,1.0031989812851,0.200372517108917,3.04523181915283
12.4743095397949,-8.56054824829102,1.04228256225586,1.31381595134735,-0.0936157032847404,2.75431132316589
12.9064608764648,-5.52351379394531,1.83084274291992,1.62944102287292,-0.303501278162003,2.3682324886322
12.0897592163086,-3.15513885498047,2.28260330200195,1.89592146873474,-0.356057167053223,1.99034881591797
10.3713327026367,-1.43671234130859,2.6056315612793,2.09549832344055,-0.200847879052162,1.67248594760895
8.20952819824219,-0.182320861816406,2.77627670288086,2.21786451339722,0.106787964701653,1.43836104869843
6.06538696289063,0.558937683105469,2.55279144287109,2.26214098930359,0.478727161884308,1.30963957309723
4.01554962158203,0.883013763427734,1.93337951660156,2.26334810256958,0.621229469776154,1.29009914398193
2.36553085327148,0.925076293945313,0.0187110900878906,2.30252313613892,0.166859030723572,1.2957775592804
1.12491073608398,0.887055358886719,-3.84460510253906,2.4029905796051,-0.853963375091553,1.25709080696106
0.364192657470703,1.08763824462891,-7.84368896484375,2.28048753738403,-1.89139425754547,1.12076282501221
0.253572692871094,2.33574279785156,-10.5187760925293,1.80939078330994,-1.90662968158722,0.910557150840759
1.50077911376953,3.58534423828125,-8.50875595092774,1.14776837825775,-1.47238874435425,0.824468851089478
3.54298233032227,4.04653518676758,-8.65919311523438,-0.245680332183838,-1.22247886657715,0.271620064973831
8.96306121826172,5.75942321777344,-13.5020722961426,-1.60201811790466,-0.164319172501564,-0.269242912530899
7.85641250610352,5.10273880004883,-9.83978805541992,-2.66196179389954,0.346515327692032,-0.712281882762909
7.10946578979492,3.38880294799805,-8.98401763916016,-3.27016258239746,0.891182661056519,-1.06273865699768
5.7191569519043,0.267194366455078,-6.17735412597656,-3.41176557540894,1.04055345058441,-1.09595549106598
2.58871673583984,-2.76909164428711,-4.15895141601563,-3.17590975761414,0.929248809814453,-1.10185205936432
2.20132232666016,-4.94526626586914,-2.08411605834961,-2.72034311294556,0.658292412757874,-1.23059856891632
3.592529296875,-6.25474319458008,-0.149239654541016,-2.24173831939697,0.419459849596024,-1.47366261482239
6.11208984375,-6.61878616333008,1.44000549316406,-1.88292968273163,0.546365082263947,-1.80894207954407
9.70117630004883,-7.22712112426758,2.43423797607422,-1.76827609539032,0.661600828170776,-2.1379554271698
12.8349096679688,-9.61645248413086,0.828227691650391,-1.97730386257172,0.553476214408875,-2.44344806671143
16.5003373718262,-13.7794454956055,-1.69223098754883,-2.53159379959106,0.174315348267555,-2.81994986534119
20.4507723999023,-18.0576988220215,-4.20625305175781,-3.26209163665771,-0.256277054548264,-3.22275376319885
23.2224087524414,-22.3212826538086,-4.83584381103516,-3.9231116771698,-0.0179331935942173,-3.30345845222473
22.9600044250488,-26.4064375305176,-0.534388732910156,-4.37308168411255,0.789864838123322,-3.12911248207092
22.1513859558105,-27.5231153869629,4.57508605957031,-4.47813940048218,1.50501894950867,-2.93229508399963
21.8401831054687,-27.8668006896973,6.82715286254883,-4.04942846298218,1.66626799106598,-2.81522393226624
21.3251042175293,-27.7013946533203,7.8222834777832,-3.05200886726379,1.25519704818726,-2.75344228744507
19.9123420715332,-26.0684403991699,8.01178939819336,-1.54220962524414,0.108000233769417,-2.8045072555542
18.3965940856934,-23.5033744812012,6.06868011474609,0.0134447021409869,-0.940617024898529,-3.02937698364258
17.3653884887695,-19.7303205871582,4.75141937255859,0.994161248207092,-1.50312888622284,-3.36966300010681
15.9915454101563,-16.0062149047852,3.08718017578125,1.1992791891098,-1.0044766664505,-3.64881491661072
12.9596003723145,-13.6718193054199,2.7975325012207,0.788522303104401,-0.611489236354828,-3.51484775543213
8.04906188964844,-13.161530456543,-1.10081085205078,0.156370431184769,-0.447790831327438,-3.07978391647339
5.3889436340332,-11.9030973815918,-4.32091461181641,-0.387134939432144,-0.694147348403931,-2.67676997184753
3.83547409057617,-8.21371948242188,-6.1743603515625,-0.752944886684418,-0.966517865657806,-2.45653486251831
2.29158462524414,-4.17392028808594,-5.75867477416992,-0.97731351852417,-1.04246509075165,-2.20048522949219
1.47637985229492,-2.21045333862305,-4.37914352416992,-1.07855761051178,-1.10036754608154,-1.84673845767975
0.194295959472656,-0.840053100585938,-3.22519317626953,-1.03768956661224,-1.10148239135742,-1.43849849700928
-1.14706466674805,0.354762268066406,-1.53086654663086,-0.86952131986618,-1.04458975791931,-1.02221703529358
-2.30445785522461,0.866697692871094,0.170944519042969,-0.62929379940033,-0.970316350460052,-0.665140211582184
-2.93898834228516,1.15694412231445,1.23508163452148,-0.421880394220352,-0.878296911716461,-0.40181428194046
-3.31725173950195,1.41081619262695,1.57921600341797,-0.209698900580406,-0.775416910648346,-0.309346944093704
-3.45691131591797,2.17123489379883,2.00418228149414,0.0476343631744385,-0.634807288646698,-0.337517321109772
-3.80179412841797,2.54605545043945,2.41088653564453,0.298819452524185,-0.45125612616539,-0.415766328573227
-4.14547943115234,2.65877105712891,2.32496520996094,0.518068194389343,-0.237920954823494,-0.422682553529739
-4.95020599365234,1.88383255004883,1.92245223999023,0.568469047546387,0.276112020015717,-0.132003039121628
-5.99263824462891,0.780177612304688,2.02439025878906,0.250241547822952,1.27690637111664,0.162948712706566
-6.08200241088867,1.14930999755859,2.22182968139648,-0.433763682842255,2.56519341468811,0.542129576206207
-5.38190826416016,1.04542602539063,1.82650177001953,-1.04857039451599,3.48281621932983,0.731511235237122
-4.95469665527344,1.25334365844727,1.15035781860352,-1.46551835536957,3.9882481098175,0.931222498416901
-5.1492919921875,0.507893829345703,0.5795947265625,-1.59205627441406,3.99145483970642,1.11497068405151
-4.63765594482422,0.0526904296875,0.505798187255859,-1.35958611965179,3.56391429901123,1.17285239696503
-3.60615097045898,0.404159545898438,0.641266479492188,-0.784597098827362,2.65955877304077,1.17567217350006
-2.95126281738281,-0.0705033874511719,0.137863311767578,0.186062544584274,0.859600722789764,1.33604693412781
-1.46754821777344,-2.30445785522461,-1.81991546630859,1.46974956989288,-1.26151859760284,1.51302433013916
2.22931411743164,-3.70464614868164,-1.44225082397461,2.23230743408203,-2.06116938591003,1.02681446075439
7.20257217407227,-1.8250048828125,1.19361785888672,2.77759504318237,-2.78177857398987,0.596502006053925
11.0176885986328,-3.01338363647461,-0.0282911682128906,3.45660924911499,-3.02478170394897,0.310971736907959
13.005704498291,-4.99256790161133,0.466130676269531,4.1675329208374,-3.96764135360718,0.488381654024124
10.7564817810059,-8.58120529174805,-6.12496307373047,4.06505632400513,-4.1505069732666,0.227545812726021
10.789712677002,-5.7577766418457,-7.11709991455078,3.48172283172607,-1.96048092842102,-0.127368345856667
13.1597341918945,-3.86137023925781,1.53191436767578,2.55943846702576,-0.376198142766953,0.381919413805008
11.6224310302734,-11.2506042480469,-1.19691101074219,1.41767227649689,0.957472443580627,1.08985126018524
12.9232260131836,-16.5563209533691,-4.53811294555664,0.545763432979584,1.91777312755585,1.93074703216553
14.0009848022461,-18.690732421875,-3.72874603271484,0.0775797441601753,1.94590175151825,2.85448312759399
15.9509797668457,-20.1928587341309,-2.48423400878906,0.066809393465519,1.37537014484406,3.45241117477417
19.2372459411621,-19.8606994628906,-1.14990875244141,0.443989425897598,0.516252160072327,3.61084008216858
22.2549705505371,-17.575401763916,0.826431427001953,1.12505793571472,-0.23321221768856,3.14335322380066
24.7763273620605,-14.3488613891602,2.79408966064453,1.88299739360809,-0.766162157058716,2.27693510055542
24.4721598815918,-11.9837796020508,3.53714447021484,2.43378734588623,-1.1187607049942,1.54808378219604
20.7618255615234,-11.2808413696289,2.77642639160156,2.60880756378174,-1.22757482528687,1.17883145809174
16.4680046081543,-11.8739080810547,1.35962265014648,2.43152379989624,-1.16840755939484,1.17387533187866
12.8227848815918,-12.7822192382813,0.125738525390625,1.99452388286591,-0.880903661251068,1.50302040576935
9.74802886962891,-13.1010562133789,-0.0223036193847656,1.5000022649765,-0.4161037504673,2.04202675819397
8.03858367919922,-12.793445892334,0.806822204589844,1.15763163566589,0.105929896235466,2.5731201171875
7.73516464233398,-11.3899644470215,2.07842788696289,1.03106439113617,0.544413268566132,2.93774485588074
8.40996139526367,-9.04524032592773,2.88989044189453,1.06740057468414,0.872132003307343,3.02958941459656
9.54924224853516,-6.49604141235352,3.13597869873047,1.18746948242188,1.14746427536011,2.84566354751587
10.235565032959,-4.10910507202148,2.88255569458008,1.36428463459015,1.27626931667328,2.49447727203369
9.9631315612793,-2.27646606445313,2.03367095947266,1.5879430770874,1.2164933681488,2.0767719745636
9.05766448974609,-1.09482330322266,1.04467758178711,1.8588627576828,1.09302973747253,1.66831541061401
8.02181854248047,-0.308059387207031,0.301024017333984,2.1270124912262,0.972591459751129,1.29649448394775
6.87759796142578,0.317489776611328,-0.470321960449219,2.34341216087341,0.646052777767181,1.01416289806366
5.71376815795898,0.975521392822266,-2.94437713623047,2.50842618942261,-0.424398422241211,0.718613803386688
5.04421051025391,2.02049835205078,-7.49296829223633,2.54291558265686,-1.32063579559326,0.421186119318008
4.22361694335938,2.79783187866211,-8.79585891723633,2.34752130508423,-2.23568558692932,0.184387415647507
4.1770637512207,3.69282073974609,-9.96283218383789,1.94032967090607,-2.76418399810791,-0.0174937732517719
4.78270431518555,4.33558410644531,-9.48831893920899,1.28927278518677,-2.78204488754272,-0.235143542289734
5.73008422851563,5.02864288330078,-8.64452362060547,0.4375821352005,-2.20763754844666,-0.539971113204956
6.907236328125,5.68772232055664,-7.6784326171875,-0.459018707275391,-1.39881920814514,-0.913174211978912
7.34986587524414,4.75366470336914,-6.8448161315918,-1.24116003513336,-0.701628148555756,-1.31579995155334
6.3466520690918,3.01443145751953,-6.23633148193359,-1.88982677459717,-0.0813361331820488,-1.63276672363281
4.88838455200195,0.729582824707031,-5.49148040771484,-2.46245288848877,0.614282846450806,-1.78389930725098
3.48280746459961,-2.21359680175781,-4.00192794799805,-2.77826237678528,0.996988713741302,-1.73366272449493
1.46979354858398,-5.58219177246094,-2.67164428710938,-2.43880271911621,0.602505028247833,-1.56803965568542
-1.08569229125977,-8.18587738037109,-1.04871917724609,-1.96260726451874,-0.069121815264225,-1.43000853061676
-1.19870727539063,-8.89091125488281,-0.30416748046875,-1.72145688533783,-0.400884032249451,-1.23181295394897
1.17056579589844,-8.7847819519043,0.486638031005859,-1.87544810771942,-0.0361918248236179,-1.12797999382019
5.98066314697266,-7.67334320068359,1.38596786499023,-2.23278856277466,0.400654733181,-1.38775908946991
10.8968898010254,-8.23018524169922,0.263751525878906,-2.68661189079285,0.526737570762634,-1.86719465255737
13.2742460632324,-12.4329954528809,-1.40722366333008,-2.99046897888184,0.0228459276258945,-1.95485854148865
13.748908996582,-19.3328970336914,-2.04968765258789,-3.11825084686279,-0.527233183383942,-1.65588772296906
14.240037689209,-24.9435296630859,0.00972976684570312,-3.235347032547,-0.754242360591888,-1.31084489822388
15.6740556335449,-27.0066893005371,2.78376113891602,-3.09283828735352,-0.917752742767334,-0.828161597251892
18.2121775817871,-29.0173081970215,5.15033981323242,-2.51005291938782,-1.16805684566498,-0.393896162509918
21.7536630249023,-30.2655624389648,7.16754501342773,-1.41680490970612,-1.58157968521118,-0.191667705774307
24.7618075561523,-27.1813760375977,8.17001037597656,-0.342172801494598,-1.59476184844971,-0.600884795188904
27.914850769043,-21.0516229248047,7.35226089477539,0.266460984945297,-1.27936363220215,-1.27969443798065
28.2320411682129,-16.643140411377,4.12542114257813,0.35114711523056,-0.824013471603394,-1.92956352233887
24.9357458496094,-13.2567324829102,-0.178728332519531,-0.293718963861465,-0.816263377666473,-2.66364765167236
23.0629902648926,-9.73365875244141,-8.75274856567383,-1.31533181667328,-0.672775208950043,-3.31976246833801
17.581988067627,-6.57926834106445,-11.8780993652344,-1.93687677383423,-0.358553349971771,-3.38836121559143
10.4282144165039,-5.5467155456543,-8.48016540527344,-2.29746055603027,-0.266707062721252,-2.98207998275757
5.20572463989258,-5.01681747436523,-6.74796752929688,-2.65201354026794,-0.355067551136017,-2.47920179367065
3.53774322509766,-3.40511901855469,-6.33497634887695,-2.93434739112854,-0.393812268972397,-2.03424167633057
2.7256819152832,-1.09512268066406,-4.63960189819336,-2.97759532928467,-0.323724538087845,-1.63267862796783
1.60601028442383,1.26621688842773,-1.91796157836914,-2.72469997406006,-0.32762286067009,-1.25043964385986
0.733474731445312,2.70397705078125,0.343834991455078,-2.25099039077759,-0.326479852199554,-0.910689771175385
-0.354612579345703,3.11621978759766,2.3135888671875,-1.76604461669922,-0.321114122867584,-0.622213780879974
-1.83802780151367,2.65577728271484,3.02805313110352,-1.37606573104858,-0.365056276321411,-0.462768971920013
-2.89497985839844,2.95904663085938,2.75038055419922,-1.07573997974396,-0.347267150878906,-0.421871602535248
-3.79281280517578,3.23417449951172,3.02296371459961,-0.912162482738495,0.00857910700142384,-0.433440923690796
-4.45563446044922,3.0322444152832,4.07871826171875,-1.27825105190277,1.30819773674011,-0.252621322870255
-4.32735122680664,3.00006134033203,4.92700424194336,-1.51191890239716,2.28053975105286,-0.114983312785625
-4.75366470336914,2.86863464355469,4.15565826416016,-1.58970582485199,3.12347149848938,0.00500834081321955
-5.21036499023438,2.20985458374023,4.05851028442383,-1.62801003456116,3.74693298339844,0.102258197963238
-5.46154266357422,1.39360198974609,3.72260879516602,-1.61114299297333,4.07417154312134,0.153974115848541
-5.78561874389648,0.895886993408203,3.09017395019531,-1.47465944290161,4.09006977081299,0.208045870065689
-6.11598175048828,0.285306701660156,2.28395050048828,-1.13919568061829,3.67980742454529,0.333428025245667
-6.50636993408203,-0.66821044921875,1.4897021484375,-0.507723152637482,2.79609084129333,0.50749808549881
-6.26881393432617,-1.45183090209961,1.18358871459961,0.471809357404709,1.38129806518555,0.671492099761963
-4.97714996337891,-1.85853515625,0.717757415771484,1.8339706659317,-0.775868594646454,0.837668836116791
-2.2131477355957,-2.75322463989258,-1.02177520751953,2.90225529670715,-2.08768248558044,0.64783787727356
2.58093292236328,-1.84805694580078,0.0386196899414063,3.17010903358459,-2.0140209197998,-0.0949084013700485
7.95505737304688,0.555345153808594,1.24825424194336,3.09328532218933,-2.21678447723389,-0.490611523389816
12.7355163574219,-2.60233840942383,-2.43154357910156,3.08408880233765,-2.56159281730652,-0.495409220457077
13.9812258911133,-7.62753845214844,-5.91135726928711,3.36563563346863,-4.46643495559692,-0.0444249883294106
10.6915168762207,-12.1337677001953,-14.04439453125,2.86041879653931,-4.19304132461548,-0.138208210468292
13.6242182922363,-6.99854644775391,-11.5170501708984,1.69359016418457,-1.38422036170959,-0.603622257709503
16.7667832946777,-2.06585403442383,-1.69282974243164,0.426339864730835,1.71602058410645,-0.118584170937538
14.6473406982422,-9.92436218261719,2.56536529541016,-0.743483185768127,3.04646873474121,0.838420629501343
15.5053564453125,-17.9207336425781,-3.66572708129883,-1.44247984886169,4.21127319335938,1.70885586738586
14.5443548583984,-16.6042213439941,-0.639170837402344,-1.60183572769165,4.117431640625,2.70130896568298
16.0800114440918,-16.7594485473633,0.792901153564453,-1.14843893051147,2.87285804748535,3.29551076889038
20.508402557373,-16.9565885925293,1.16742233276367,-0.217369601130486,1.38843929767609,3.30569958686829
23.9605238342285,-14.4141256713867,3.90477996826172,0.949211597442627,0.198445454239845,2.89970517158508
24.9128434753418,-12.1671482849121,6.82146469116211,2.10793328285217,-0.541052579879761,2.25595784187317
23.3944010925293,-10.3589085388184,7.7646533203125,2.91418814659119,-0.739003777503967,1.70608592033386
19.1053701782227,-9.69444030761719,7.15077987670898,3.26105308532715,-0.60976243019104,1.43624782562256
14.1216339111328,-9.8147900390625,5.56572601318359,3.26885581016541,-0.240854948759079,1.45178711414337
10.0342337036133,-10.3481309509277,4.21852752685547,3.04232001304626,0.229759693145752,1.73828327655792
6.84152297973633,-10.9438920593262,2.9747639465332,2.74176406860352,0.593128561973572,2.23453760147095
4.73540267944336,-11.4320269775391,1.76917098999023,2.49152064323425,0.723862886428833,2.80115818977356
3.88771545410156,-11.6516203308105,0.747545471191406,2.39813590049744,0.574113070964813,3.30187177658081
4.02797378540039,-11.1136390686035,0.299676818847656,2.48988604545593,0.253287136554718,3.61601543426514
4.9290998840332,-9.5463981628418,0.311053161621094,2.76579022407532,-0.19802413880825,3.66303586959839
6.31551681518555,-7.28505065917969,0.202977905273438,3.17035126686096,-0.741983592510223,3.451984167099
7.49775833129883,-4.96607299804687,-0.462987213134766,3.51632761955261,-1.21328020095825,2.99452018737793
8.19515808105469,-2.53183502197266,-1.77934982299805,3.70691323280334,-1.85515534877777,2.40075874328613
8.97788040161133,0.0669108581542969,-5.21350845336914,3.69010972976685,-2.97820734977722,1.61942136287689
11.9068395996094,3.53834197998047,-10.3379521179199,3.07111692428589,-2.95376229286194,0.651206254959106
10.681787109375,7.04165679931641,-12.7061773681641,1.37330424785614,-1.59708833694458,0.155206367373466
10.1985919189453,8.78897323608398,-18.2777412414551,-0.380220025777817,-0.0368669368326664,0.164629697799683
10.2476898193359,5.47696060180664,-15.1931057739258,-1.45455551147461,0.671787202358246,0.118687771260738
9.21483764648437,2.59051300048828,-9.81149688720703,-1.55910396575928,0.678550243377686,-0.217724874615669
6.93238403320313,1.67112487792969,-5.10707977294922,-1.04197514057159,0.475623250007629,-0.42854443192482
2.51342330932617,2.19413726806641,-1.75539962768555,-0.431830763816833,-0.155162960290909,-0.573007881641388
2.06809936523438,2.31583419799805,0.205223236083984,-0.072420135140419,-0.386041432619095,-0.760938882827759
3.94564498901367,1.7293537902832,0.92687255859375,-0.13353756070137,-0.0853876024484634,-1.00367724895477
4.97580276489258,1.13404174804687,0.104183349609375,-0.524706363677979,0.0501150973141193,-1.25538778305054
4.4117756652832,0.214953002929687,-1.8537451171875,-1.05234754085541,-0.131043776869774,-1.43834102153778
2.59470428466797,-1.83009429931641,-3.25947189331055,-1.51225817203522,-0.395829081535339,-1.45276176929474
0.977018280029297,-4.59289901733398,-2.90515869140625,-1.89190185070038,-0.587372422218323,-1.38279795646667
0.731229400634766,-6.35099304199219,-1.40243362426758,-2.24676632881165,-0.487539023160934,-1.29278254508972
2.05537582397461,-6.93268341064453,0.434097290039062,-2.53901696205139,-0.148123160004616,-1.26116573810577
4.32151336669922,-7.39746688842773,1.45961471557617,-2.76038312911987,0.323132246732712,-1.30542051792145
6.78419219970703,-8.50531311035156,1.66768203735352,-3.00385117530823,0.842827916145325,-1.45167338848114
9.68785400390625,-10.2909498596191,1.10500213623047,-3.3409252166748,1.11735081672668,-1.7324470281601
13.299693145752,-13.8825810241699,-0.937051391601563,-3.71988606452942,0.753093719482422,-1.80171823501587
17.0817283630371,-21.1131449890137,-3.68054626464844,-4.16312837600708,0.131515949964523,-1.54227089881897
19.3219697570801,-28.6405416870117,-3.32847839355469,-4.32994699478149,-1.16357314586639,-1.32821381092072
22.1718933105469,-31.3714627075195,-1.18343902587891,-3.76018786430359,-2.21457934379578,-0.632787048816681
24.3863882446289,-35.4843099975586,5.5661750793457,-2.43567895889282,-2.62191605567932,-0.131821677088737
27.4654852294922,-33.3022975158691,13.2127239990234,-0.623866260051727,-2.22567844390869,-0.63912296295166
32.2444473266602,-24.0060292053223,15.7204591369629,0.962747395038605,-1.64501166343689,-1.79027354717255
32.9243334960938,-16.3033470153809,11.144175567627,1.77096211910248,-1.48780715465546,-2.89882397651672
27.9283227539063,-12.5629252624512,2.12543014526367,1.63772928714752,-1.68552982807159,-3.57345986366272
20.810474395752,-11.9849771118164,-8.05355255126953,0.40993744134903,-2.12395405769348,-3.82736396789551
15.1056875610352,-10.2716400146484,-17.6911111450195,-1.06652593612671,-1.53483724594116,-3.62981033325195
10.3559147644043,-7.50299743652344,-15.2808233642578,-2.10655808448792,-0.739869832992554,-3.07688331604004
6.85768936157227,-4.30399978637695,-9.71839050292969,-2.721755027771,-0.1389230042696,-2.48650431632996
5.34179168701172,-1.93667266845703,-6.70470748901367,-3.0624988079071,0.315849840641022,-2.06613779067993
4.85979400634766,-0.109871520996094,-4.91233474731445,-3.20776128768921,0.720471382141113,-1.79311668872833
3.87439315795898,1.87095932006836,-2.77852203369141,-3.05991363525391,0.958980858325958,-1.49532151222229
1.9974462890625,2.89602767944336,-0.386196899414063,-2.58696985244751,1.19115841388702,-1.12515068054199
0.00553848266601563,3.05155426025391,2.385439453125,-2.02204275131226,1.46667385101318,-0.8382768034935
-1.15245346069336,3.60719879150391,3.99579071044922,-1.52593910694122,1.59277987480164,-0.689738750457764
-2.48857498168945,3.76871292114258,3.70614303588867,-1.16965234279633,1.57038640975952,-0.618110120296478
-4.27046951293945,3.10304718017578,2.75681716918945,-0.970939517021179,1.42316448688507,-0.541626751422882
-6.58690246582031,2.09848617553711,1.69387756347656,-0.824836909770966,0.921831369400024,-0.505328178405762
-8.09621383666992,1.96301788330078,0.171543273925781,-0.627429842948914,0.426891684532166,-0.453753650188446
-8.71188354492188,1.19481536865234,0.279319152832031,-0.465400457382202,0.289166569709778,-0.306838780641556
-8.96575561523438,-0.00673599243164063,1.54987701416016,-0.419379144906998,0.457055956125259,-0.0170351769775152
-9.31872161865234,-0.323776702880859,2.50578918457031,-0.487682044506073,0.870380401611328,0.269144922494888
-9.13370635986328,-0.738414459228516,2.96653106689453,-0.528320848941803,1.22460639476776,0.506184101104736
-8.57746307373047,-1.1352392578125,3.12370422363281,-0.52269172668457,1.47090756893158,0.739826440811157
-8.07959838867188,-1.31022537231445,3.26246566772461,-0.562303304672241,1.70014154911041,1.00041937828064
-7.37905517578125,-1.80255157470703,3.16935928344727,-0.451159715652466,1.84891080856323,1.24124157428741
-6.38078109741211,-2.32975524902344,3.40511901855469,-0.0652623623609543,1.69336187839508,1.46843981742859
-5.23671020507813,-2.62239669799805,3.44643310546875,0.578535795211792,1.09237110614777,1.61529874801636
-3.1805859375,-3.09032363891602,2.46133163452148,1.48402893543243,-0.195549532771111,1.79750967025757
0.288899230957031,-4.34112258911133,-0.286504211425781,2.23132348060608,-1.10927772521973,1.68135321140289
5.32757125854492,-4.19457733154297,-0.604892120361328,2.22414946556091,-1.04193913936615,1.06069076061249
10.5371878051758,-3.02700531005859,-1.02776275634766,1.93270874023438,-1.73945593833923,0.610613286495209
18.3254919433594,-6.11613143920898,-6.56684417724609,1.70430195331573,-2.41460657119751,0.473025888204575
20.1599272155762,-11.1434271240234,-10.0337846374512,1.55318033695221,-3.72133779525757,0.641964852809906
18.9824757385254,-11.4571746826172,-14.8907345581055,1.05950617790222,-1.65179824829102,-0.196380168199539
19.4403735351563,-0.601000213623047,-3.42637481689453,0.864767789840698,-0.366206228733063,0.0908987447619438
18.0217735290527,-6.94630508422852,-1.35153945922852,0.2924864590168,0.703524589538574,0.567814707756042
15.8444013977051,-13.5088082885742,-3.90627685546875,-0.136761844158173,2.31037068367004,1.36644184589386
13.725707244873,-12.9149931335449,1.6428337097168,-0.169075042009354,3.55393576622009,2.23403239250183
14.5070823669434,-12.5551414489746,6.58540557861328,0.180639013648033,3.79129862785339,2.79159832000732
18.5763702392578,-13.5697315979004,5.10498413085937,0.842869460582733,2.90687680244446,2.9796245098114
21.9517012023926,-13.2755932617188,2.787802734375,1.67412638664246,1.45036125183105,2.91356563568115
23.8713093566895,-13.0422285461426,2.12992080688477,2.48603630065918,0.127980068325996,2.69362783432007
23.8799913024902,-12.4945175170898,2.81369888305664,3.08199119567871,-0.734907031059265,2.34919786453247
22.0912110900879,-10.5175785827637,3.14510971069336,3.3163902759552,-0.962385475635529,1.95736956596375
18.8417683410645,-8.75439514160156,3.06532562255859,3.19650769233704,-0.663577437400818,1.71900999546051
14.4813359069824,-8.10549453735352,3.09496398925781,2.8590624332428,-0.108876414597034,1.73402941226959
10.2707418823242,-8.29919174194336,3.04481826782227,2.41656422615051,0.550138771533966,1.95169806480408
7.02758605957031,-8.92578872680664,3.09301803588867,2.04616260528564,1.08351480960846,2.33865523338318
4.78914093017578,-9.67348388671875,3.17953811645508,1.8769029378891,1.33466744422913,2.8013334274292
3.67575622558594,-9.86957611083984,3.28387115478516,1.9556143283844,1.24320113658905,3.17051458358765
3.65450042724609,-9.32515823364258,3.0991552734375,2.24973845481873,0.852572381496429,3.34494972229004
3.93292144775391,-8.23946594238281,2.68915786743164,2.69454193115234,0.310538440942764,3.3426468372345
4.21733001708984,-6.82835037231445,2.22467376708984,3.1727921962738,-0.259438753128052,3.18339276313782
4.56311096191406,-5.3790641784668,1.49793502807617,3.5583484172821,-0.726622700691223,2.90422439575195
4.86263809204102,-3.98441436767578,0.531844024658203,3.7599983215332,-1.01046431064606,2.57475638389587
4.88554046630859,-2.7256819152832,-0.626896362304687,3.76684975624084,-1.19564342498779,2.24733185768127
4.73225921630859,-1.44584335327148,-2.48707809448242,3.24255847930908,-2.03376722335815,1.79137849807739
6.55726409912109,0.879271545410156,-11.6713792419434,1.82316040992737,-3.41815996170044,0.889604449272156
10.0553398132324,3.81900833129883,-21.739741973877,0.814046561717987,-3.23767709732056,0.275043278932571
7.59595413208008,4.646337890625,-13.6525094604492,0.367330342531204,-2.37250280380249,0.276240915060043
